condition,glasses1,glasses2,begin_loop.thisRepN,begin_loop.thisTrialN,begin_loop.thisN,begin_loop.thisIndex,begin_loop.ran,participant,PROLIFIC_ID*,date,expName,psychopyVersion,OS,frameRate,session,similarity_resp.keys,similarity_resp.rt,bl_loop.thisRepN,bl_loop.thisTrialN,bl_loop.thisN,bl_loop.thisIndex,bl_loop.ran,ask_glasses,glasses_left_num,glasses_right_num,classification_glasses,class_resp.keys,class_resp.rt,class_loop.thisRepN,class_loop.thisTrialN,class_loop.thisN,class_loop.thisIndex,class_loop.ran,manipulation_check,key_resp_3.keys,key_resp_3.rt
upright_glasses,geometric_oval_001.png,geometric_oval_101.png,0,0,0,0,1,29,60fb4784c32491283cdea7e1,2021-07-26_22h14.00.768,glasses,2021.1.4,Win32,60.11421701,1,,,,,,,,,,,,,,,,,,,,,
,,,,,,,,29,60fb4784c32491283cdea7e1,2021-07-26_22h14.00.768,glasses,2021.1.4,Win32,60.11421701,1,period,9.2266,0,0,0,12,1,glasses1,8,6,,,,,,,,,,,
,,,,,,,,29,60fb4784c32491283cdea7e1,2021-07-26_22h14.00.768,glasses,2021.1.4,Win32,60.11421701,1,x,1.548,0,1,1,34,1,glasses2,7,5,,,,,,,,,,,
,,,,,,,,29,60fb4784c32491283cdea7e1,2021-07-26_22h14.00.768,glasses,2021.1.4,Win32,60.11421701,1,x,1.8153,0,2,2,31,1,glasses2,10,8,,,,,,,,,,,
,,,,,,,,29,60fb4784c32491283cdea7e1,2021-07-26_22h14.00.768,glasses,2021.1.4,Win32,60.11421701,1,x,2.1834,0,3,3,28,1,glasses2,4,2,,,,,,,,,,,
,,,,,,,,29,60fb4784c32491283cdea7e1,2021-07-26_22h14.00.768,glasses,2021.1.4,Win32,60.11421701,1,x,1.6593,0,4,4,3,1,glasses1,6,8,,,,,,,,,,,
,,,,,,,,29,60fb4784c32491283cdea7e1,2021-07-26_22h14.00.768,glasses,2021.1.4,Win32,60.11421701,1,period,1.723,0,5,5,13,1,glasses1,10,8,,,,,,,,,,,
,,,,,,,,29,60fb4784c32491283cdea7e1,2021-07-26_22h14.00.768,glasses,2021.1.4,Win32,60.11421701,1,period,1.5112,0,6,6,18,1,glasses2,0,2,,,,,,,,,,,
,,,,,,,,29,60fb4784c32491283cdea7e1,2021-07-26_22h14.00.768,glasses,2021.1.4,Win32,60.11421701,1,period,2.2255,0,7,7,0,1,glasses1,0,2,,,,,,,,,,,
,,,,,,,,29,60fb4784c32491283cdea7e1,2021-07-26_22h14.00.768,glasses,2021.1.4,Win32,60.11421701,1,period,2.8181,0,8,8,23,1,glasses2,1,3,,,,,,,,,,,
,,,,,,,,29,60fb4784c32491283cdea7e1,2021-07-26_22h14.00.768,glasses,2021.1.4,Win32,60.11421701,1,x,2.9122,0,9,9,14,1,glasses1,3,1,,,,,,,,,,,
,,,,,,,,29,60fb4784c32491283cdea7e1,2021-07-26_22h14.00.768,glasses,2021.1.4,Win32,60.11421701,1,x,2.0902,0,10,10,2,1,glasses1,4,6,,,,,,,,,,,
,,,,,,,,29,60fb4784c32491283cdea7e1,2021-07-26_22h14.00.768,glasses,2021.1.4,Win32,60.11421701,1,period,2.6491,0,11,11,4,1,glasses1,8,10,,,,,,,,,,,
,,,,,,,,29,60fb4784c32491283cdea7e1,2021-07-26_22h14.00.768,glasses,2021.1.4,Win32,60.11421701,1,x,3.9559,0,12,12,33,1,glasses2,5,3,,,,,,,,,,,
,,,,,,,,29,60fb4784c32491283cdea7e1,2021-07-26_22h14.00.768,glasses,2021.1.4,Win32,60.11421701,1,period,1.2438,0,13,13,22,1,glasses2,8,10,,,,,,,,,,,
,,,,,,,,29,60fb4784c32491283cdea7e1,2021-07-26_22h14.00.768,glasses,2021.1.4,Win32,60.11421701,1,period,1.4532,0,14,14,26,1,glasses2,7,9,,,,,,,,,,,
,,,,,,,,29,60fb4784c32491283cdea7e1,2021-07-26_22h14.00.768,glasses,2021.1.4,Win32,60.11421701,1,period,1.532,0,15,15,20,1,glasses2,4,6,,,,,,,,,,,
,,,,,,,,29,60fb4784c32491283cdea7e1,2021-07-26_22h14.00.768,glasses,2021.1.4,Win32,60.11421701,1,x,3.3473,0,16,16,9,1,glasses1,2,0,,,,,,,,,,,
,,,,,,,,29,60fb4784c32491283cdea7e1,2021-07-26_22h14.00.768,glasses,2021.1.4,Win32,60.11421701,1,x,1.3422,0,17,17,11,1,glasses1,6,4,,,,,,,,,,,
,,,,,,,,29,60fb4784c32491283cdea7e1,2021-07-26_22h14.00.768,glasses,2021.1.4,Win32,60.11421701,1,period,1.6037,0,18,18,24,1,glasses2,3,5,,,,,,,,,,,
,,,,,,,,29,60fb4784c32491283cdea7e1,2021-07-26_22h14.00.768,glasses,2021.1.4,Win32,60.11421701,1,x,2.9983,0,19,19,1,1,glasses1,2,4,,,,,,,,,,,
,,,,,,,,29,60fb4784c32491283cdea7e1,2021-07-26_22h14.00.768,glasses,2021.1.4,Win32,60.11421701,1,x,1.6219,0,20,20,29,1,glasses2,6,4,,,,,,,,,,,
,,,,,,,,29,60fb4784c32491283cdea7e1,2021-07-26_22h14.00.768,glasses,2021.1.4,Win32,60.11421701,1,x,2.2393,0,21,21,35,1,glasses2,9,7,,,,,,,,,,,
,,,,,,,,29,60fb4784c32491283cdea7e1,2021-07-26_22h14.00.768,glasses,2021.1.4,Win32,60.11421701,1,period,2.018,0,22,22,16,1,glasses1,7,5,,,,,,,,,,,
,,,,,,,,29,60fb4784c32491283cdea7e1,2021-07-26_22h14.00.768,glasses,2021.1.4,Win32,60.11421701,1,x,1.7801,0,23,23,8,1,glasses1,7,9,,,,,,,,,,,
,,,,,,,,29,60fb4784c32491283cdea7e1,2021-07-26_22h14.00.768,glasses,2021.1.4,Win32,60.11421701,1,x,1.6376,0,24,24,5,1,glasses1,1,3,,,,,,,,,,,
,,,,,,,,29,60fb4784c32491283cdea7e1,2021-07-26_22h14.00.768,glasses,2021.1.4,Win32,60.11421701,1,period,2.8802,0,25,25,17,1,glasses1,9,7,,,,,,,,,,,
,,,,,,,,29,60fb4784c32491283cdea7e1,2021-07-26_22h14.00.768,glasses,2021.1.4,Win32,60.11421701,1,x,1.3144,0,26,26,30,1,glasses2,8,6,,,,,,,,,,,
,,,,,,,,29,60fb4784c32491283cdea7e1,2021-07-26_22h14.00.768,glasses,2021.1.4,Win32,60.11421701,1,x,1.3656,0,27,27,6,1,glasses1,3,5,,,,,,,,,,,
,,,,,,,,29,60fb4784c32491283cdea7e1,2021-07-26_22h14.00.768,glasses,2021.1.4,Win32,60.11421701,1,period,1.6678,0,28,28,10,1,glasses1,4,2,,,,,,,,,,,
,,,,,,,,29,60fb4784c32491283cdea7e1,2021-07-26_22h14.00.768,glasses,2021.1.4,Win32,60.11421701,1,x,3.5359,0,29,29,27,1,glasses2,2,0,,,,,,,,,,,
,,,,,,,,29,60fb4784c32491283cdea7e1,2021-07-26_22h14.00.768,glasses,2021.1.4,Win32,60.11421701,1,x,1.4962,0,30,30,32,1,glasses2,3,1,,,,,,,,,,,
,,,,,,,,29,60fb4784c32491283cdea7e1,2021-07-26_22h14.00.768,glasses,2021.1.4,Win32,60.11421701,1,period,2.103,0,31,31,19,1,glasses2,2,4,,,,,,,,,,,
,,,,,,,,29,60fb4784c32491283cdea7e1,2021-07-26_22h14.00.768,glasses,2021.1.4,Win32,60.11421701,1,period,1.4821,0,32,32,7,1,glasses1,5,7,,,,,,,,,,,
,,,,,,,,29,60fb4784c32491283cdea7e1,2021-07-26_22h14.00.768,glasses,2021.1.4,Win32,60.11421701,1,period,1.5261,0,33,33,21,1,glasses2,6,8,,,,,,,,,,,
,,,,,,,,29,60fb4784c32491283cdea7e1,2021-07-26_22h14.00.768,glasses,2021.1.4,Win32,60.11421701,1,period,1.4021,0,34,34,25,1,glasses2,5,7,,,,,,,,,,,
,,,,,,,,29,60fb4784c32491283cdea7e1,2021-07-26_22h14.00.768,glasses,2021.1.4,Win32,60.11421701,1,period,1.7744,0,35,35,15,1,glasses1,5,3,,,,,,,,,,,
,,,,,,,,29,60fb4784c32491283cdea7e1,2021-07-26_22h14.00.768,glasses,2021.1.4,Win32,60.11421701,1,,,,,,,,,,,geometric_oval_101.png,period,7.454,0,0,0,0,1,,,
,,,,,,,,29,60fb4784c32491283cdea7e1,2021-07-26_22h14.00.768,glasses,2021.1.4,Win32,60.11421701,1,,,,,,,,,,,geometric_oval_041.png,x,2.3946,1,0,1,0,1,,,
,,,,,,,,29,60fb4784c32491283cdea7e1,2021-07-26_22h14.00.768,glasses,2021.1.4,Win32,60.11421701,1,,,,,,,,,,,geometric_oval_011.png,x,1.4259,2,0,2,0,1,,,
,,,,,,,,29,60fb4784c32491283cdea7e1,2021-07-26_22h14.00.768,glasses,2021.1.4,Win32,60.11421701,1,,,,,,,,,,,geometric_oval_101.png,period,1.1279,3,0,3,0,1,,,
,,,,,,,,29,60fb4784c32491283cdea7e1,2021-07-26_22h14.00.768,glasses,2021.1.4,Win32,60.11421701,1,,,,,,,,,,,geometric_oval_081.png,period,1.1273,4,0,4,0,1,,,
,,,,,,,,29,60fb4784c32491283cdea7e1,2021-07-26_22h14.00.768,glasses,2021.1.4,Win32,60.11421701,1,,,,,,,,,,,geometric_oval_031.png,x,1.1511,5,0,5,0,1,,,
,,,,,,,,29,60fb4784c32491283cdea7e1,2021-07-26_22h14.00.768,glasses,2021.1.4,Win32,60.11421701,1,,,,,,,,,,,geometric_oval_031.png,x,1.0541,6,0,6,0,1,,,
,,,,,,,,29,60fb4784c32491283cdea7e1,2021-07-26_22h14.00.768,glasses,2021.1.4,Win32,60.11421701,1,,,,,,,,,,,geometric_oval_051.png,x,0.5777,7,0,7,0,1,,,
,,,,,,,,29,60fb4784c32491283cdea7e1,2021-07-26_22h14.00.768,glasses,2021.1.4,Win32,60.11421701,1,,,,,,,,,,,geometric_oval_011.png,x,0.6394,8,0,8,0,1,,,
,,,,,,,,29,60fb4784c32491283cdea7e1,2021-07-26_22h14.00.768,glasses,2021.1.4,Win32,60.11421701,1,,,,,,,,,,,geometric_oval_091.png,period,0.6052,9,0,9,0,1,,,
,,,,,,,,29,60fb4784c32491283cdea7e1,2021-07-26_22h14.00.768,glasses,2021.1.4,Win32,60.11421701,1,,,,,,,,,,,geometric_oval_091.png,period,0.584,10,0,10,0,1,,,
,,,,,,,,29,60fb4784c32491283cdea7e1,2021-07-26_22h14.00.768,glasses,2021.1.4,Win32,60.11421701,1,,,,,,,,,,,geometric_oval_091.png,period,0.5199,11,0,11,0,1,,,
,,,,,,,,29,60fb4784c32491283cdea7e1,2021-07-26_22h14.00.768,glasses,2021.1.4,Win32,60.11421701,1,,,,,,,,,,,geometric_oval_091.png,period,0.6837,12,0,12,0,1,,,
,,,,,,,,29,60fb4784c32491283cdea7e1,2021-07-26_22h14.00.768,glasses,2021.1.4,Win32,60.11421701,1,,,,,,,,,,,geometric_oval_061.png,period,1.305,13,0,13,0,1,,,
,,,,,,,,29,60fb4784c32491283cdea7e1,2021-07-26_22h14.00.768,glasses,2021.1.4,Win32,60.11421701,1,,,,,,,,,,,geometric_oval_051.png,x,1.45,14,0,14,0,1,,,
,,,,,,,,29,60fb4784c32491283cdea7e1,2021-07-26_22h14.00.768,glasses,2021.1.4,Win32,60.11421701,1,,,,,,,,,,,geometric_oval_001.png,x,0.846,15,0,15,0,1,,,
,,,,,,,,29,60fb4784c32491283cdea7e1,2021-07-26_22h14.00.768,glasses,2021.1.4,Win32,60.11421701,1,,,,,,,,,,,geometric_oval_061.png,period,0.525,16,0,16,0,1,,,
,,,,,,,,29,60fb4784c32491283cdea7e1,2021-07-26_22h14.00.768,glasses,2021.1.4,Win32,60.11421701,1,,,,,,,,,,,geometric_oval_001.png,x,0.5921,17,0,17,0,1,,,
,,,,,,,,29,60fb4784c32491283cdea7e1,2021-07-26_22h14.00.768,glasses,2021.1.4,Win32,60.11421701,1,,,,,,,,,,,geometric_oval_041.png,x,0.9618,18,0,18,0,1,,,
,,,,,,,,29,60fb4784c32491283cdea7e1,2021-07-26_22h14.00.768,glasses,2021.1.4,Win32,60.11421701,1,,,,,,,,,,,geometric_oval_101.png,period,0.5907,19,0,19,0,1,,,
,,,,,,,,29,60fb4784c32491283cdea7e1,2021-07-26_22h14.00.768,glasses,2021.1.4,Win32,60.11421701,1,,,,,,,,,,,geometric_oval_071.png,period,0.5801,20,0,20,0,1,,,
,,,,,,,,29,60fb4784c32491283cdea7e1,2021-07-26_22h14.00.768,glasses,2021.1.4,Win32,60.11421701,1,,,,,,,,,,,geometric_oval_041.png,x,0.7101,21,0,21,0,1,,,
,,,,,,,,29,60fb4784c32491283cdea7e1,2021-07-26_22h14.00.768,glasses,2021.1.4,Win32,60.11421701,1,,,,,,,,,,,geometric_oval_071.png,period,0.6077,22,0,22,0,1,,,
,,,,,,,,29,60fb4784c32491283cdea7e1,2021-07-26_22h14.00.768,glasses,2021.1.4,Win32,60.11421701,1,,,,,,,,,,,geometric_oval_021.png,x,0.6577,23,0,23,0,1,,,
,,,,,,,,29,60fb4784c32491283cdea7e1,2021-07-26_22h14.00.768,glasses,2021.1.4,Win32,60.11421701,1,,,,,,,,,,,geometric_oval_011.png,x,0.6483,24,0,24,0,1,,,
,,,,,,,,29,60fb4784c32491283cdea7e1,2021-07-26_22h14.00.768,glasses,2021.1.4,Win32,60.11421701,1,,,,,,,,,,,geometric_oval_051.png,period,1.0312,25,0,25,0,1,,,
,,,,,,,,29,60fb4784c32491283cdea7e1,2021-07-26_22h14.00.768,glasses,2021.1.4,Win32,60.11421701,1,,,,,,,,,,,geometric_oval_021.png,x,0.708,26,0,26,0,1,,,
,,,,,,,,29,60fb4784c32491283cdea7e1,2021-07-26_22h14.00.768,glasses,2021.1.4,Win32,60.11421701,1,,,,,,,,,,,geometric_oval_031.png,x,0.6824,27,0,27,0,1,,,
,,,,,,,,29,60fb4784c32491283cdea7e1,2021-07-26_22h14.00.768,glasses,2021.1.4,Win32,60.11421701,1,,,,,,,,,,,geometric_oval_071.png,period,1.1201,28,0,28,0,1,,,
,,,,,,,,29,60fb4784c32491283cdea7e1,2021-07-26_22h14.00.768,glasses,2021.1.4,Win32,60.11421701,1,,,,,,,,,,,geometric_oval_021.png,x,0.6422,29,0,29,0,1,,,
,,,,,,,,29,60fb4784c32491283cdea7e1,2021-07-26_22h14.00.768,glasses,2021.1.4,Win32,60.11421701,1,,,,,,,,,,,geometric_oval_041.png,x,0.7735,30,0,30,0,1,,,
,,,,,,,,29,60fb4784c32491283cdea7e1,2021-07-26_22h14.00.768,glasses,2021.1.4,Win32,60.11421701,1,,,,,,,,,,,geometric_oval_001.png,x,0.741,31,0,31,0,1,,,
,,,,,,,,29,60fb4784c32491283cdea7e1,2021-07-26_22h14.00.768,glasses,2021.1.4,Win32,60.11421701,1,,,,,,,,,,,geometric_oval_001.png,x,0.7167,32,0,32,0,1,,,
,,,,,,,,29,60fb4784c32491283cdea7e1,2021-07-26_22h14.00.768,glasses,2021.1.4,Win32,60.11421701,1,,,,,,,,,,,geometric_oval_051.png,period,1.2993,33,0,33,0,1,,,
,,,,,,,,29,60fb4784c32491283cdea7e1,2021-07-26_22h14.00.768,glasses,2021.1.4,Win32,60.11421701,1,,,,,,,,,,,geometric_oval_001.png,x,0.7926,34,0,34,0,1,,,
,,,,,,,,29,60fb4784c32491283cdea7e1,2021-07-26_22h14.00.768,glasses,2021.1.4,Win32,60.11421701,1,,,,,,,,,,,geometric_oval_071.png,period,0.7417,35,0,35,0,1,,,
,,,,,,,,29,60fb4784c32491283cdea7e1,2021-07-26_22h14.00.768,glasses,2021.1.4,Win32,60.11421701,1,,,,,,,,,,,geometric_oval_081.png,period,0.5906,36,0,36,0,1,,,
,,,,,,,,29,60fb4784c32491283cdea7e1,2021-07-26_22h14.00.768,glasses,2021.1.4,Win32,60.11421701,1,,,,,,,,,,,geometric_oval_081.png,period,0.5999,37,0,37,0,1,,,
,,,,,,,,29,60fb4784c32491283cdea7e1,2021-07-26_22h14.00.768,glasses,2021.1.4,Win32,60.11421701,1,,,,,,,,,,,geometric_oval_011.png,x,0.6043,38,0,38,0,1,,,
,,,,,,,,29,60fb4784c32491283cdea7e1,2021-07-26_22h14.00.768,glasses,2021.1.4,Win32,60.11421701,1,,,,,,,,,,,geometric_oval_041.png,x,1.6562,39,0,39,0,1,,,
,,,,,,,,29,60fb4784c32491283cdea7e1,2021-07-26_22h14.00.768,glasses,2021.1.4,Win32,60.11421701,1,,,,,,,,,,,geometric_oval_101.png,period,0.624,40,0,40,0,1,,,
,,,,,,,,29,60fb4784c32491283cdea7e1,2021-07-26_22h14.00.768,glasses,2021.1.4,Win32,60.11421701,1,,,,,,,,,,,geometric_oval_101.png,period,0.5873,41,0,41,0,1,,,
,,,,,,,,29,60fb4784c32491283cdea7e1,2021-07-26_22h14.00.768,glasses,2021.1.4,Win32,60.11421701,1,,,,,,,,,,,geometric_oval_001.png,x,0.7078,42,0,42,0,1,,,
,,,,,,,,29,60fb4784c32491283cdea7e1,2021-07-26_22h14.00.768,glasses,2021.1.4,Win32,60.11421701,1,,,,,,,,,,,geometric_oval_081.png,period,0.7054,43,0,43,0,1,,,
,,,,,,,,29,60fb4784c32491283cdea7e1,2021-07-26_22h14.00.768,glasses,2021.1.4,Win32,60.11421701,1,,,,,,,,,,,geometric_oval_041.png,period,0.8691,44,0,44,0,1,,,
,,,,,,,,29,60fb4784c32491283cdea7e1,2021-07-26_22h14.00.768,glasses,2021.1.4,Win32,60.11421701,1,,,,,,,,,,,geometric_oval_021.png,x,1.0647,45,0,45,0,1,,,
,,,,,,,,29,60fb4784c32491283cdea7e1,2021-07-26_22h14.00.768,glasses,2021.1.4,Win32,60.11421701,1,,,,,,,,,,,geometric_oval_051.png,period,0.8224,46,0,46,0,1,,,
,,,,,,,,29,60fb4784c32491283cdea7e1,2021-07-26_22h14.00.768,glasses,2021.1.4,Win32,60.11421701,1,,,,,,,,,,,geometric_oval_031.png,period,1.0728,47,0,47,0,1,,,
,,,,,,,,29,60fb4784c32491283cdea7e1,2021-07-26_22h14.00.768,glasses,2021.1.4,Win32,60.11421701,1,,,,,,,,,,,geometric_oval_061.png,period,0.7333,48,0,48,0,1,,,
,,,,,,,,29,60fb4784c32491283cdea7e1,2021-07-26_22h14.00.768,glasses,2021.1.4,Win32,60.11421701,1,,,,,,,,,,,geometric_oval_071.png,period,0.6811,49,0,49,0,1,,,
,,,,,,,,29,60fb4784c32491283cdea7e1,2021-07-26_22h14.00.768,glasses,2021.1.4,Win32,60.11421701,1,,,,,,,,,,,geometric_oval_011.png,x,0.6564,50,0,50,0,1,,,
,,,,,,,,29,60fb4784c32491283cdea7e1,2021-07-26_22h14.00.768,glasses,2021.1.4,Win32,60.11421701,1,,,,,,,,,,,geometric_oval_081.png,period,0.64,51,0,51,0,1,,,
,,,,,,,,29,60fb4784c32491283cdea7e1,2021-07-26_22h14.00.768,glasses,2021.1.4,Win32,60.11421701,1,,,,,,,,,,,geometric_oval_031.png,x,1.8565,52,0,52,0,1,,,
,,,,,,,,29,60fb4784c32491283cdea7e1,2021-07-26_22h14.00.768,glasses,2021.1.4,Win32,60.11421701,1,,,,,,,,,,,geometric_oval_031.png,x,1.1858,53,0,53,0,1,,,
,,,,,,,,29,60fb4784c32491283cdea7e1,2021-07-26_22h14.00.768,glasses,2021.1.4,Win32,60.11421701,1,,,,,,,,,,,geometric_oval_001.png,x,1.075,54,0,54,0,1,,,
,,,,,,,,29,60fb4784c32491283cdea7e1,2021-07-26_22h14.00.768,glasses,2021.1.4,Win32,60.11421701,1,,,,,,,,,,,geometric_oval_061.png,period,1.0935,55,0,55,0,1,,,
,,,,,,,,29,60fb4784c32491283cdea7e1,2021-07-26_22h14.00.768,glasses,2021.1.4,Win32,60.11421701,1,,,,,,,,,,,geometric_oval_001.png,x,0.7583,56,0,56,0,1,,,
,,,,,,,,29,60fb4784c32491283cdea7e1,2021-07-26_22h14.00.768,glasses,2021.1.4,Win32,60.11421701,1,,,,,,,,,,,geometric_oval_071.png,period,0.6968,57,0,57,0,1,,,
,,,,,,,,29,60fb4784c32491283cdea7e1,2021-07-26_22h14.00.768,glasses,2021.1.4,Win32,60.11421701,1,,,,,,,,,,,geometric_oval_061.png,period,0.8047,58,0,58,0,1,,,
,,,,,,,,29,60fb4784c32491283cdea7e1,2021-07-26_22h14.00.768,glasses,2021.1.4,Win32,60.11421701,1,,,,,,,,,,,geometric_oval_011.png,x,0.7817,59,0,59,0,1,,,
,,,,,,,,29,60fb4784c32491283cdea7e1,2021-07-26_22h14.00.768,glasses,2021.1.4,Win32,60.11421701,1,,,,,,,,,,,geometric_oval_071.png,period,0.844,60,0,60,0,1,,,
,,,,,,,,29,60fb4784c32491283cdea7e1,2021-07-26_22h14.00.768,glasses,2021.1.4,Win32,60.11421701,1,,,,,,,,,,,geometric_oval_081.png,period,0.7125,61,0,61,0,1,,,
,,,,,,,,29,60fb4784c32491283cdea7e1,2021-07-26_22h14.00.768,glasses,2021.1.4,Win32,60.11421701,1,,,,,,,,,,,geometric_oval_051.png,period,0.561,62,0,62,0,1,,,
,,,,,,,,29,60fb4784c32491283cdea7e1,2021-07-26_22h14.00.768,glasses,2021.1.4,Win32,60.11421701,1,,,,,,,,,,,geometric_oval_011.png,x,0.6083,63,0,63,0,1,,,
,,,,,,,,29,60fb4784c32491283cdea7e1,2021-07-26_22h14.00.768,glasses,2021.1.4,Win32,60.11421701,1,,,,,,,,,,,geometric_oval_031.png,x,0.6388,64,0,64,0,1,,,
,,,,,,,,29,60fb4784c32491283cdea7e1,2021-07-26_22h14.00.768,glasses,2021.1.4,Win32,60.11421701,1,,,,,,,,,,,geometric_oval_021.png,x,0.6975,65,0,65,0,1,,,
,,,,,,,,29,60fb4784c32491283cdea7e1,2021-07-26_22h14.00.768,glasses,2021.1.4,Win32,60.11421701,1,,,,,,,,,,,geometric_oval_101.png,period,0.5885,66,0,66,0,1,,,
,,,,,,,,29,60fb4784c32491283cdea7e1,2021-07-26_22h14.00.768,glasses,2021.1.4,Win32,60.11421701,1,,,,,,,,,,,geometric_oval_051.png,period,0.626,67,0,67,0,1,,,
,,,,,,,,29,60fb4784c32491283cdea7e1,2021-07-26_22h14.00.768,glasses,2021.1.4,Win32,60.11421701,1,,,,,,,,,,,geometric_oval_091.png,period,0.5331,68,0,68,0,1,,,
,,,,,,,,29,60fb4784c32491283cdea7e1,2021-07-26_22h14.00.768,glasses,2021.1.4,Win32,60.11421701,1,,,,,,,,,,,geometric_oval_021.png,x,0.609,69,0,69,0,1,,,
,,,,,,,,29,60fb4784c32491283cdea7e1,2021-07-26_22h14.00.768,glasses,2021.1.4,Win32,60.11421701,1,,,,,,,,,,,geometric_oval_101.png,period,0.5114,70,0,70,0,1,,,
,,,,,,,,29,60fb4784c32491283cdea7e1,2021-07-26_22h14.00.768,glasses,2021.1.4,Win32,60.11421701,1,,,,,,,,,,,geometric_oval_061.png,period,0.8575,71,0,71,0,1,,,
,,,,,,,,29,60fb4784c32491283cdea7e1,2021-07-26_22h14.00.768,glasses,2021.1.4,Win32,60.11421701,1,,,,,,,,,,,geometric_oval_021.png,x,0.5364,72,0,72,0,1,,,
,,,,,,,,29,60fb4784c32491283cdea7e1,2021-07-26_22h14.00.768,glasses,2021.1.4,Win32,60.11421701,1,,,,,,,,,,,geometric_oval_041.png,x,0.5652,73,0,73,0,1,,,
,,,,,,,,29,60fb4784c32491283cdea7e1,2021-07-26_22h14.00.768,glasses,2021.1.4,Win32,60.11421701,1,,,,,,,,,,,geometric_oval_071.png,period,0.6074,74,0,74,0,1,,,
,,,,,,,,29,60fb4784c32491283cdea7e1,2021-07-26_22h14.00.768,glasses,2021.1.4,Win32,60.11421701,1,,,,,,,,,,,geometric_oval_091.png,period,0.5263,75,0,75,0,1,,,
,,,,,,,,29,60fb4784c32491283cdea7e1,2021-07-26_22h14.00.768,glasses,2021.1.4,Win32,60.11421701,1,,,,,,,,,,,geometric_oval_021.png,x,0.4973,76,0,76,0,1,,,
,,,,,,,,29,60fb4784c32491283cdea7e1,2021-07-26_22h14.00.768,glasses,2021.1.4,Win32,60.11421701,1,,,,,,,,,,,geometric_oval_011.png,x,0.5421,77,0,77,0,1,,,
,,,,,,,,29,60fb4784c32491283cdea7e1,2021-07-26_22h14.00.768,glasses,2021.1.4,Win32,60.11421701,1,,,,,,,,,,,geometric_oval_031.png,x,0.6683,78,0,78,0,1,,,
,,,,,,,,29,60fb4784c32491283cdea7e1,2021-07-26_22h14.00.768,glasses,2021.1.4,Win32,60.11421701,1,,,,,,,,,,,geometric_oval_081.png,period,0.5742,79,0,79,0,1,,,
,,,,,,,,29,60fb4784c32491283cdea7e1,2021-07-26_22h14.00.768,glasses,2021.1.4,Win32,60.11421701,1,,,,,,,,,,,geometric_oval_091.png,period,0.5305,80,0,80,0,1,,,
,,,,,,,,29,60fb4784c32491283cdea7e1,2021-07-26_22h14.00.768,glasses,2021.1.4,Win32,60.11421701,1,,,,,,,,,,,geometric_oval_091.png,period,0.5328,81,0,81,0,1,,,
,,,,,,,,29,60fb4784c32491283cdea7e1,2021-07-26_22h14.00.768,glasses,2021.1.4,Win32,60.11421701,1,,,,,,,,,,,geometric_oval_101.png,period,0.4938,82,0,82,0,1,,,
,,,,,,,,29,60fb4784c32491283cdea7e1,2021-07-26_22h14.00.768,glasses,2021.1.4,Win32,60.11421701,1,,,,,,,,,,,geometric_oval_081.png,period,0.5476,83,0,83,0,1,,,
,,,,,,,,29,60fb4784c32491283cdea7e1,2021-07-26_22h14.00.768,glasses,2021.1.4,Win32,60.11421701,1,,,,,,,,,,,geometric_oval_061.png,period,0.5889,84,0,84,0,1,,,
,,,,,,,,29,60fb4784c32491283cdea7e1,2021-07-26_22h14.00.768,glasses,2021.1.4,Win32,60.11421701,1,,,,,,,,,,,geometric_oval_061.png,period,0.7189,85,0,85,0,1,,,
,,,,,,,,29,60fb4784c32491283cdea7e1,2021-07-26_22h14.00.768,glasses,2021.1.4,Win32,60.11421701,1,,,,,,,,,,,geometric_oval_041.png,period,0.8236,86,0,86,0,1,,,
,,,,,,,,29,60fb4784c32491283cdea7e1,2021-07-26_22h14.00.768,glasses,2021.1.4,Win32,60.11421701,1,,,,,,,,,,,geometric_oval_051.png,period,1.0415,87,0,87,0,1,,,
,,,,,,,,29,60fb4784c32491283cdea7e1,2021-07-26_22h14.00.768,glasses,2021.1.4,Win32,60.11421701,1,,,,,,,,,,,,,,,,,,,correct,x,30.2845
