condition,glasses1,glasses2,begin_loop.thisRepN,begin_loop.thisTrialN,begin_loop.thisN,begin_loop.thisIndex,begin_loop.ran,participant,PROLIFIC_ID*,date,expName,psychopyVersion,OS,frameRate,session,similarity_resp.keys,similarity_resp.rt,bl_loop.thisRepN,bl_loop.thisTrialN,bl_loop.thisN,bl_loop.thisIndex,bl_loop.ran,ask_glasses,glasses_left_num,glasses_right_num,classification_glasses,class_resp.keys,class_resp.rt,class_loop.thisRepN,class_loop.thisTrialN,class_loop.thisN,class_loop.thisIndex,class_loop.ran,manipulation_check,key_resp_3.keys,key_resp_3.rt
inverted_glasses,oval_rectangle_001.png,oval_rectangle_101.png,0,0,0,0,1,35,60fd22fd64eeb0991e35412a,2021-07-26_22h14.55.169,glasses,2021.1.4,MacIntel,60.0024001,1,,,,,,,,,,,,,,,,,,,,,
,,,,,,,,35,60fd22fd64eeb0991e35412a,2021-07-26_22h14.55.169,glasses,2021.1.4,MacIntel,60.0024001,1,x,3.1425,0,0,0,22,1,glasses2,8,10,,,,,,,,,,,
,,,,,,,,35,60fd22fd64eeb0991e35412a,2021-07-26_22h14.55.169,glasses,2021.1.4,MacIntel,60.0024001,1,period,11.0008,0,1,1,11,1,glasses1,6,4,,,,,,,,,,,
,,,,,,,,35,60fd22fd64eeb0991e35412a,2021-07-26_22h14.55.169,glasses,2021.1.4,MacIntel,60.0024001,1,period,2.5428,0,2,2,31,1,glasses2,10,8,,,,,,,,,,,
,,,,,,,,35,60fd22fd64eeb0991e35412a,2021-07-26_22h14.55.169,glasses,2021.1.4,MacIntel,60.0024001,1,period,2.4088,0,3,3,10,1,glasses1,4,2,,,,,,,,,,,
,,,,,,,,35,60fd22fd64eeb0991e35412a,2021-07-26_22h14.55.169,glasses,2021.1.4,MacIntel,60.0024001,1,x,3.4452,0,4,4,26,1,glasses2,7,9,,,,,,,,,,,
,,,,,,,,35,60fd22fd64eeb0991e35412a,2021-07-26_22h14.55.169,glasses,2021.1.4,MacIntel,60.0024001,1,x,2.2892,0,5,5,30,1,glasses2,8,6,,,,,,,,,,,
,,,,,,,,35,60fd22fd64eeb0991e35412a,2021-07-26_22h14.55.169,glasses,2021.1.4,MacIntel,60.0024001,1,period,2.0651,0,6,6,12,1,glasses1,8,6,,,,,,,,,,,
,,,,,,,,35,60fd22fd64eeb0991e35412a,2021-07-26_22h14.55.169,glasses,2021.1.4,MacIntel,60.0024001,1,period,1.9782,0,7,7,13,1,glasses1,10,8,,,,,,,,,,,
,,,,,,,,35,60fd22fd64eeb0991e35412a,2021-07-26_22h14.55.169,glasses,2021.1.4,MacIntel,60.0024001,1,x,2.3201,0,8,8,3,1,glasses1,6,8,,,,,,,,,,,
,,,,,,,,35,60fd22fd64eeb0991e35412a,2021-07-26_22h14.55.169,glasses,2021.1.4,MacIntel,60.0024001,1,x,2.0665,0,9,9,35,1,glasses2,9,7,,,,,,,,,,,
,,,,,,,,35,60fd22fd64eeb0991e35412a,2021-07-26_22h14.55.169,glasses,2021.1.4,MacIntel,60.0024001,1,period,2.0275,0,10,10,24,1,glasses2,3,5,,,,,,,,,,,
,,,,,,,,35,60fd22fd64eeb0991e35412a,2021-07-26_22h14.55.169,glasses,2021.1.4,MacIntel,60.0024001,1,period,2.2638,0,11,11,23,1,glasses2,1,3,,,,,,,,,,,
,,,,,,,,35,60fd22fd64eeb0991e35412a,2021-07-26_22h14.55.169,glasses,2021.1.4,MacIntel,60.0024001,1,x,2.434,0,12,12,28,1,glasses2,4,2,,,,,,,,,,,
,,,,,,,,35,60fd22fd64eeb0991e35412a,2021-07-26_22h14.55.169,glasses,2021.1.4,MacIntel,60.0024001,1,x,2.5504,0,13,13,2,1,glasses1,4,6,,,,,,,,,,,
,,,,,,,,35,60fd22fd64eeb0991e35412a,2021-07-26_22h14.55.169,glasses,2021.1.4,MacIntel,60.0024001,1,period,2.1647,0,14,14,25,1,glasses2,5,7,,,,,,,,,,,
,,,,,,,,35,60fd22fd64eeb0991e35412a,2021-07-26_22h14.55.169,glasses,2021.1.4,MacIntel,60.0024001,1,x,2.2915,0,15,15,34,1,glasses2,7,5,,,,,,,,,,,
,,,,,,,,35,60fd22fd64eeb0991e35412a,2021-07-26_22h14.55.169,glasses,2021.1.4,MacIntel,60.0024001,1,x,2.3836,0,16,16,4,1,glasses1,8,10,,,,,,,,,,,
,,,,,,,,35,60fd22fd64eeb0991e35412a,2021-07-26_22h14.55.169,glasses,2021.1.4,MacIntel,60.0024001,1,period,2.048,0,17,17,18,1,glasses2,0,2,,,,,,,,,,,
,,,,,,,,35,60fd22fd64eeb0991e35412a,2021-07-26_22h14.55.169,glasses,2021.1.4,MacIntel,60.0024001,1,x,2.2127,0,18,18,29,1,glasses2,6,4,,,,,,,,,,,
,,,,,,,,35,60fd22fd64eeb0991e35412a,2021-07-26_22h14.55.169,glasses,2021.1.4,MacIntel,60.0024001,1,x,2.6154,0,19,19,20,1,glasses2,4,6,,,,,,,,,,,
,,,,,,,,35,60fd22fd64eeb0991e35412a,2021-07-26_22h14.55.169,glasses,2021.1.4,MacIntel,60.0024001,1,x,7.7575,0,20,20,33,1,glasses2,5,3,,,,,,,,,,,
,,,,,,,,35,60fd22fd64eeb0991e35412a,2021-07-26_22h14.55.169,glasses,2021.1.4,MacIntel,60.0024001,1,period,2.1274,0,21,21,17,1,glasses1,9,7,,,,,,,,,,,
,,,,,,,,35,60fd22fd64eeb0991e35412a,2021-07-26_22h14.55.169,glasses,2021.1.4,MacIntel,60.0024001,1,period,2.0658,0,22,22,15,1,glasses1,5,3,,,,,,,,,,,
,,,,,,,,35,60fd22fd64eeb0991e35412a,2021-07-26_22h14.55.169,glasses,2021.1.4,MacIntel,60.0024001,1,x,2.132,0,23,23,32,1,glasses2,3,1,,,,,,,,,,,
,,,,,,,,35,60fd22fd64eeb0991e35412a,2021-07-26_22h14.55.169,glasses,2021.1.4,MacIntel,60.0024001,1,period,2.0768,0,24,24,5,1,glasses1,1,3,,,,,,,,,,,
,,,,,,,,35,60fd22fd64eeb0991e35412a,2021-07-26_22h14.55.169,glasses,2021.1.4,MacIntel,60.0024001,1,x,2.1295,0,25,25,6,1,glasses1,3,5,,,,,,,,,,,
,,,,,,,,35,60fd22fd64eeb0991e35412a,2021-07-26_22h14.55.169,glasses,2021.1.4,MacIntel,60.0024001,1,period,1.974,0,26,26,19,1,glasses2,2,4,,,,,,,,,,,
,,,,,,,,35,60fd22fd64eeb0991e35412a,2021-07-26_22h14.55.169,glasses,2021.1.4,MacIntel,60.0024001,1,period,1.8626,0,27,27,21,1,glasses2,6,8,,,,,,,,,,,
,,,,,,,,35,60fd22fd64eeb0991e35412a,2021-07-26_22h14.55.169,glasses,2021.1.4,MacIntel,60.0024001,1,x,2.028,0,28,28,1,1,glasses1,2,4,,,,,,,,,,,
,,,,,,,,35,60fd22fd64eeb0991e35412a,2021-07-26_22h14.55.169,glasses,2021.1.4,MacIntel,60.0024001,1,x,2.9101,0,29,29,27,1,glasses2,2,0,,,,,,,,,,,
,,,,,,,,35,60fd22fd64eeb0991e35412a,2021-07-26_22h14.55.169,glasses,2021.1.4,MacIntel,60.0024001,1,x,2.1337,0,30,30,8,1,glasses1,7,9,,,,,,,,,,,
,,,,,,,,35,60fd22fd64eeb0991e35412a,2021-07-26_22h14.55.169,glasses,2021.1.4,MacIntel,60.0024001,1,period,2.077,0,31,31,16,1,glasses1,7,5,,,,,,,,,,,
,,,,,,,,35,60fd22fd64eeb0991e35412a,2021-07-26_22h14.55.169,glasses,2021.1.4,MacIntel,60.0024001,1,x,2.2039,0,32,32,7,1,glasses1,5,7,,,,,,,,,,,
,,,,,,,,35,60fd22fd64eeb0991e35412a,2021-07-26_22h14.55.169,glasses,2021.1.4,MacIntel,60.0024001,1,period,2.1268,0,33,33,14,1,glasses1,3,1,,,,,,,,,,,
,,,,,,,,35,60fd22fd64eeb0991e35412a,2021-07-26_22h14.55.169,glasses,2021.1.4,MacIntel,60.0024001,1,x,2.0682,0,34,34,0,1,glasses1,0,2,,,,,,,,,,,
,,,,,,,,35,60fd22fd64eeb0991e35412a,2021-07-26_22h14.55.169,glasses,2021.1.4,MacIntel,60.0024001,1,period,1.9907,0,35,35,9,1,glasses1,2,0,,,,,,,,,,,
,,,,,,,,35,60fd22fd64eeb0991e35412a,2021-07-26_22h14.55.169,glasses,2021.1.4,MacIntel,60.0024001,1,,,,,,,,,,,oval_rectangle_091.png,period,1.0951,0,0,0,0,1,,,
,,,,,,,,35,60fd22fd64eeb0991e35412a,2021-07-26_22h14.55.169,glasses,2021.1.4,MacIntel,60.0024001,1,,,,,,,,,,,oval_rectangle_081.png,period,2.4386,1,0,1,0,1,,,
,,,,,,,,35,60fd22fd64eeb0991e35412a,2021-07-26_22h14.55.169,glasses,2021.1.4,MacIntel,60.0024001,1,,,,,,,,,,,oval_rectangle_021.png,x,1.0988,2,0,2,0,1,,,
,,,,,,,,35,60fd22fd64eeb0991e35412a,2021-07-26_22h14.55.169,glasses,2021.1.4,MacIntel,60.0024001,1,,,,,,,,,,,oval_rectangle_041.png,period,1.0929,3,0,3,0,1,,,
,,,,,,,,35,60fd22fd64eeb0991e35412a,2021-07-26_22h14.55.169,glasses,2021.1.4,MacIntel,60.0024001,1,,,,,,,,,,,oval_rectangle_071.png,period,1.0585,4,0,4,0,1,,,
,,,,,,,,35,60fd22fd64eeb0991e35412a,2021-07-26_22h14.55.169,glasses,2021.1.4,MacIntel,60.0024001,1,,,,,,,,,,,oval_rectangle_001.png,x,1.0964,5,0,5,0,1,,,
,,,,,,,,35,60fd22fd64eeb0991e35412a,2021-07-26_22h14.55.169,glasses,2021.1.4,MacIntel,60.0024001,1,,,,,,,,,,,oval_rectangle_091.png,period,1.3196,6,0,6,0,1,,,
,,,,,,,,35,60fd22fd64eeb0991e35412a,2021-07-26_22h14.55.169,glasses,2021.1.4,MacIntel,60.0024001,1,,,,,,,,,,,oval_rectangle_051.png,period,1.0605,7,0,7,0,1,,,
,,,,,,,,35,60fd22fd64eeb0991e35412a,2021-07-26_22h14.55.169,glasses,2021.1.4,MacIntel,60.0024001,1,,,,,,,,,,,oval_rectangle_001.png,x,1.1134,8,0,8,0,1,,,
,,,,,,,,35,60fd22fd64eeb0991e35412a,2021-07-26_22h14.55.169,glasses,2021.1.4,MacIntel,60.0024001,1,,,,,,,,,,,oval_rectangle_041.png,period,1.4197,9,0,9,0,1,,,
,,,,,,,,35,60fd22fd64eeb0991e35412a,2021-07-26_22h14.55.169,glasses,2021.1.4,MacIntel,60.0024001,1,,,,,,,,,,,oval_rectangle_011.png,x,1.5946,10,0,10,0,1,,,
,,,,,,,,35,60fd22fd64eeb0991e35412a,2021-07-26_22h14.55.169,glasses,2021.1.4,MacIntel,60.0024001,1,,,,,,,,,,,oval_rectangle_001.png,x,1.9104,11,0,11,0,1,,,
,,,,,,,,35,60fd22fd64eeb0991e35412a,2021-07-26_22h14.55.169,glasses,2021.1.4,MacIntel,60.0024001,1,,,,,,,,,,,oval_rectangle_021.png,x,0.7237,12,0,12,0,1,,,
,,,,,,,,35,60fd22fd64eeb0991e35412a,2021-07-26_22h14.55.169,glasses,2021.1.4,MacIntel,60.0024001,1,,,,,,,,,,,oval_rectangle_081.png,period,1.0733,13,0,13,0,1,,,
,,,,,,,,35,60fd22fd64eeb0991e35412a,2021-07-26_22h14.55.169,glasses,2021.1.4,MacIntel,60.0024001,1,,,,,,,,,,,oval_rectangle_021.png,x,1.0192,14,0,14,0,1,,,
,,,,,,,,35,60fd22fd64eeb0991e35412a,2021-07-26_22h14.55.169,glasses,2021.1.4,MacIntel,60.0024001,1,,,,,,,,,,,oval_rectangle_091.png,period,1.7818,15,0,15,0,1,,,
,,,,,,,,35,60fd22fd64eeb0991e35412a,2021-07-26_22h14.55.169,glasses,2021.1.4,MacIntel,60.0024001,1,,,,,,,,,,,oval_rectangle_071.png,period,1.2325,16,0,16,0,1,,,
,,,,,,,,35,60fd22fd64eeb0991e35412a,2021-07-26_22h14.55.169,glasses,2021.1.4,MacIntel,60.0024001,1,,,,,,,,,,,oval_rectangle_041.png,period,1.206,17,0,17,0,1,,,
,,,,,,,,35,60fd22fd64eeb0991e35412a,2021-07-26_22h14.55.169,glasses,2021.1.4,MacIntel,60.0024001,1,,,,,,,,,,,oval_rectangle_021.png,x,1.5985,18,0,18,0,1,,,
,,,,,,,,35,60fd22fd64eeb0991e35412a,2021-07-26_22h14.55.169,glasses,2021.1.4,MacIntel,60.0024001,1,,,,,,,,,,,oval_rectangle_081.png,period,1.1547,19,0,19,0,1,,,
,,,,,,,,35,60fd22fd64eeb0991e35412a,2021-07-26_22h14.55.169,glasses,2021.1.4,MacIntel,60.0024001,1,,,,,,,,,,,oval_rectangle_101.png,period,1.1478,20,0,20,0,1,,,
,,,,,,,,35,60fd22fd64eeb0991e35412a,2021-07-26_22h14.55.169,glasses,2021.1.4,MacIntel,60.0024001,1,,,,,,,,,,,oval_rectangle_101.png,period,1.1573,21,0,21,0,1,,,
,,,,,,,,35,60fd22fd64eeb0991e35412a,2021-07-26_22h14.55.169,glasses,2021.1.4,MacIntel,60.0024001,1,,,,,,,,,,,oval_rectangle_011.png,x,1.1052,22,0,22,0,1,,,
,,,,,,,,35,60fd22fd64eeb0991e35412a,2021-07-26_22h14.55.169,glasses,2021.1.4,MacIntel,60.0024001,1,,,,,,,,,,,oval_rectangle_101.png,period,1.6277,23,0,23,0,1,,,
,,,,,,,,35,60fd22fd64eeb0991e35412a,2021-07-26_22h14.55.169,glasses,2021.1.4,MacIntel,60.0024001,1,,,,,,,,,,,oval_rectangle_001.png,x,1.4897,24,0,24,0,1,,,
,,,,,,,,35,60fd22fd64eeb0991e35412a,2021-07-26_22h14.55.169,glasses,2021.1.4,MacIntel,60.0024001,1,,,,,,,,,,,oval_rectangle_011.png,x,1.038,25,0,25,0,1,,,
,,,,,,,,35,60fd22fd64eeb0991e35412a,2021-07-26_22h14.55.169,glasses,2021.1.4,MacIntel,60.0024001,1,,,,,,,,,,,oval_rectangle_021.png,x,1.1638,26,0,26,0,1,,,
,,,,,,,,35,60fd22fd64eeb0991e35412a,2021-07-26_22h14.55.169,glasses,2021.1.4,MacIntel,60.0024001,1,,,,,,,,,,,oval_rectangle_041.png,x,1.1782,27,0,27,0,1,,,
,,,,,,,,35,60fd22fd64eeb0991e35412a,2021-07-26_22h14.55.169,glasses,2021.1.4,MacIntel,60.0024001,1,,,,,,,,,,,oval_rectangle_061.png,period,1.092,28,0,28,0,1,,,
,,,,,,,,35,60fd22fd64eeb0991e35412a,2021-07-26_22h14.55.169,glasses,2021.1.4,MacIntel,60.0024001,1,,,,,,,,,,,oval_rectangle_061.png,period,1.1661,29,0,29,0,1,,,
,,,,,,,,35,60fd22fd64eeb0991e35412a,2021-07-26_22h14.55.169,glasses,2021.1.4,MacIntel,60.0024001,1,,,,,,,,,,,oval_rectangle_001.png,x,1.3078,30,0,30,0,1,,,
,,,,,,,,35,60fd22fd64eeb0991e35412a,2021-07-26_22h14.55.169,glasses,2021.1.4,MacIntel,60.0024001,1,,,,,,,,,,,oval_rectangle_071.png,period,1.2871,31,0,31,0,1,,,
,,,,,,,,35,60fd22fd64eeb0991e35412a,2021-07-26_22h14.55.169,glasses,2021.1.4,MacIntel,60.0024001,1,,,,,,,,,,,oval_rectangle_031.png,x,2.1676,32,0,32,0,1,,,
,,,,,,,,35,60fd22fd64eeb0991e35412a,2021-07-26_22h14.55.169,glasses,2021.1.4,MacIntel,60.0024001,1,,,,,,,,,,,oval_rectangle_101.png,period,1.1022,33,0,33,0,1,,,
,,,,,,,,35,60fd22fd64eeb0991e35412a,2021-07-26_22h14.55.169,glasses,2021.1.4,MacIntel,60.0024001,1,,,,,,,,,,,oval_rectangle_011.png,x,1.1131,34,0,34,0,1,,,
,,,,,,,,35,60fd22fd64eeb0991e35412a,2021-07-26_22h14.55.169,glasses,2021.1.4,MacIntel,60.0024001,1,,,,,,,,,,,oval_rectangle_021.png,x,1.0427,35,0,35,0,1,,,
,,,,,,,,35,60fd22fd64eeb0991e35412a,2021-07-26_22h14.55.169,glasses,2021.1.4,MacIntel,60.0024001,1,,,,,,,,,,,oval_rectangle_061.png,period,1.1454,36,0,36,0,1,,,
,,,,,,,,35,60fd22fd64eeb0991e35412a,2021-07-26_22h14.55.169,glasses,2021.1.4,MacIntel,60.0024001,1,,,,,,,,,,,oval_rectangle_061.png,period,1.176,37,0,37,0,1,,,
,,,,,,,,35,60fd22fd64eeb0991e35412a,2021-07-26_22h14.55.169,glasses,2021.1.4,MacIntel,60.0024001,1,,,,,,,,,,,oval_rectangle_011.png,x,1.0904,38,0,38,0,1,,,
,,,,,,,,35,60fd22fd64eeb0991e35412a,2021-07-26_22h14.55.169,glasses,2021.1.4,MacIntel,60.0024001,1,,,,,,,,,,,oval_rectangle_101.png,period,1.1777,39,0,39,0,1,,,
,,,,,,,,35,60fd22fd64eeb0991e35412a,2021-07-26_22h14.55.169,glasses,2021.1.4,MacIntel,60.0024001,1,,,,,,,,,,,oval_rectangle_071.png,period,1.0841,40,0,40,0,1,,,
,,,,,,,,35,60fd22fd64eeb0991e35412a,2021-07-26_22h14.55.169,glasses,2021.1.4,MacIntel,60.0024001,1,,,,,,,,,,,oval_rectangle_031.png,x,1.0882,41,0,41,0,1,,,
,,,,,,,,35,60fd22fd64eeb0991e35412a,2021-07-26_22h14.55.169,glasses,2021.1.4,MacIntel,60.0024001,1,,,,,,,,,,,oval_rectangle_001.png,x,1.1115,42,0,42,0,1,,,
,,,,,,,,35,60fd22fd64eeb0991e35412a,2021-07-26_22h14.55.169,glasses,2021.1.4,MacIntel,60.0024001,1,,,,,,,,,,,oval_rectangle_051.png,period,1.0635,43,0,43,0,1,,,
,,,,,,,,35,60fd22fd64eeb0991e35412a,2021-07-26_22h14.55.169,glasses,2021.1.4,MacIntel,60.0024001,1,,,,,,,,,,,oval_rectangle_031.png,x,1.1132,44,0,44,0,1,,,
,,,,,,,,35,60fd22fd64eeb0991e35412a,2021-07-26_22h14.55.169,glasses,2021.1.4,MacIntel,60.0024001,1,,,,,,,,,,,oval_rectangle_071.png,period,1.0639,45,0,45,0,1,,,
,,,,,,,,35,60fd22fd64eeb0991e35412a,2021-07-26_22h14.55.169,glasses,2021.1.4,MacIntel,60.0024001,1,,,,,,,,,,,oval_rectangle_101.png,period,0.6932,46,0,46,0,1,,,
,,,,,,,,35,60fd22fd64eeb0991e35412a,2021-07-26_22h14.55.169,glasses,2021.1.4,MacIntel,60.0024001,1,,,,,,,,,,,oval_rectangle_061.png,period,2.5939,47,0,47,0,1,,,
,,,,,,,,35,60fd22fd64eeb0991e35412a,2021-07-26_22h14.55.169,glasses,2021.1.4,MacIntel,60.0024001,1,,,,,,,,,,,oval_rectangle_061.png,period,1.8323,48,0,48,0,1,,,
,,,,,,,,35,60fd22fd64eeb0991e35412a,2021-07-26_22h14.55.169,glasses,2021.1.4,MacIntel,60.0024001,1,,,,,,,,,,,oval_rectangle_061.png,period,1.1074,49,0,49,0,1,,,
,,,,,,,,35,60fd22fd64eeb0991e35412a,2021-07-26_22h14.55.169,glasses,2021.1.4,MacIntel,60.0024001,1,,,,,,,,,,,oval_rectangle_051.png,period,1.0471,50,0,50,0,1,,,
,,,,,,,,35,60fd22fd64eeb0991e35412a,2021-07-26_22h14.55.169,glasses,2021.1.4,MacIntel,60.0024001,1,,,,,,,,,,,oval_rectangle_031.png,period,1.9486,51,0,51,0,1,,,
,,,,,,,,35,60fd22fd64eeb0991e35412a,2021-07-26_22h14.55.169,glasses,2021.1.4,MacIntel,60.0024001,1,,,,,,,,,,,oval_rectangle_001.png,x,1.2617,52,0,52,0,1,,,
,,,,,,,,35,60fd22fd64eeb0991e35412a,2021-07-26_22h14.55.169,glasses,2021.1.4,MacIntel,60.0024001,1,,,,,,,,,,,oval_rectangle_011.png,x,1.0266,53,0,53,0,1,,,
,,,,,,,,35,60fd22fd64eeb0991e35412a,2021-07-26_22h14.55.169,glasses,2021.1.4,MacIntel,60.0024001,1,,,,,,,,,,,oval_rectangle_051.png,period,1.144,54,0,54,0,1,,,
,,,,,,,,35,60fd22fd64eeb0991e35412a,2021-07-26_22h14.55.169,glasses,2021.1.4,MacIntel,60.0024001,1,,,,,,,,,,,oval_rectangle_021.png,x,1.345,55,0,55,0,1,,,
,,,,,,,,35,60fd22fd64eeb0991e35412a,2021-07-26_22h14.55.169,glasses,2021.1.4,MacIntel,60.0024001,1,,,,,,,,,,,oval_rectangle_041.png,x,1.0137,56,0,56,0,1,,,
,,,,,,,,35,60fd22fd64eeb0991e35412a,2021-07-26_22h14.55.169,glasses,2021.1.4,MacIntel,60.0024001,1,,,,,,,,,,,oval_rectangle_081.png,period,1.4633,57,0,57,0,1,,,
,,,,,,,,35,60fd22fd64eeb0991e35412a,2021-07-26_22h14.55.169,glasses,2021.1.4,MacIntel,60.0024001,1,,,,,,,,,,,oval_rectangle_011.png,x,1.5786,58,0,58,0,1,,,
,,,,,,,,35,60fd22fd64eeb0991e35412a,2021-07-26_22h14.55.169,glasses,2021.1.4,MacIntel,60.0024001,1,,,,,,,,,,,oval_rectangle_041.png,x,1.2254,59,0,59,0,1,,,
,,,,,,,,35,60fd22fd64eeb0991e35412a,2021-07-26_22h14.55.169,glasses,2021.1.4,MacIntel,60.0024001,1,,,,,,,,,,,oval_rectangle_081.png,period,21.1128,60,0,60,0,1,,,
,,,,,,,,35,60fd22fd64eeb0991e35412a,2021-07-26_22h14.55.169,glasses,2021.1.4,MacIntel,60.0024001,1,,,,,,,,,,,oval_rectangle_051.png,period,4.5466,61,0,61,0,1,,,
,,,,,,,,35,60fd22fd64eeb0991e35412a,2021-07-26_22h14.55.169,glasses,2021.1.4,MacIntel,60.0024001,1,,,,,,,,,,,oval_rectangle_041.png,period,1.2046,62,0,62,0,1,,,
,,,,,,,,35,60fd22fd64eeb0991e35412a,2021-07-26_22h14.55.169,glasses,2021.1.4,MacIntel,60.0024001,1,,,,,,,,,,,oval_rectangle_071.png,period,0.712,63,0,63,0,1,,,
,,,,,,,,35,60fd22fd64eeb0991e35412a,2021-07-26_22h14.55.169,glasses,2021.1.4,MacIntel,60.0024001,1,,,,,,,,,,,oval_rectangle_091.png,x,1.8448,64,0,64,0,1,,,
,,,,,,,,35,60fd22fd64eeb0991e35412a,2021-07-26_22h14.55.169,glasses,2021.1.4,MacIntel,60.0024001,1,,,,,,,,,,,oval_rectangle_051.png,period,1.0167,65,0,65,0,1,,,
,,,,,,,,35,60fd22fd64eeb0991e35412a,2021-07-26_22h14.55.169,glasses,2021.1.4,MacIntel,60.0024001,1,,,,,,,,,,,oval_rectangle_091.png,period,1.7425,66,0,66,0,1,,,
,,,,,,,,35,60fd22fd64eeb0991e35412a,2021-07-26_22h14.55.169,glasses,2021.1.4,MacIntel,60.0024001,1,,,,,,,,,,,oval_rectangle_091.png,period,1.1958,67,0,67,0,1,,,
,,,,,,,,35,60fd22fd64eeb0991e35412a,2021-07-26_22h14.55.169,glasses,2021.1.4,MacIntel,60.0024001,1,,,,,,,,,,,oval_rectangle_031.png,x,0.9958,68,0,68,0,1,,,
,,,,,,,,35,60fd22fd64eeb0991e35412a,2021-07-26_22h14.55.169,glasses,2021.1.4,MacIntel,60.0024001,1,,,,,,,,,,,oval_rectangle_031.png,x,1.8728,69,0,69,0,1,,,
,,,,,,,,35,60fd22fd64eeb0991e35412a,2021-07-26_22h14.55.169,glasses,2021.1.4,MacIntel,60.0024001,1,,,,,,,,,,,oval_rectangle_051.png,period,1.4286,70,0,70,0,1,,,
,,,,,,,,35,60fd22fd64eeb0991e35412a,2021-07-26_22h14.55.169,glasses,2021.1.4,MacIntel,60.0024001,1,,,,,,,,,,,oval_rectangle_051.png,period,1.2712,71,0,71,0,1,,,
,,,,,,,,35,60fd22fd64eeb0991e35412a,2021-07-26_22h14.55.169,glasses,2021.1.4,MacIntel,60.0024001,1,,,,,,,,,,,oval_rectangle_101.png,period,1.099,72,0,72,0,1,,,
,,,,,,,,35,60fd22fd64eeb0991e35412a,2021-07-26_22h14.55.169,glasses,2021.1.4,MacIntel,60.0024001,1,,,,,,,,,,,oval_rectangle_081.png,period,1.0446,73,0,73,0,1,,,
,,,,,,,,35,60fd22fd64eeb0991e35412a,2021-07-26_22h14.55.169,glasses,2021.1.4,MacIntel,60.0024001,1,,,,,,,,,,,oval_rectangle_091.png,period,1.2116,74,0,74,0,1,,,
,,,,,,,,35,60fd22fd64eeb0991e35412a,2021-07-26_22h14.55.169,glasses,2021.1.4,MacIntel,60.0024001,1,,,,,,,,,,,oval_rectangle_101.png,period,1.1419,75,0,75,0,1,,,
,,,,,,,,35,60fd22fd64eeb0991e35412a,2021-07-26_22h14.55.169,glasses,2021.1.4,MacIntel,60.0024001,1,,,,,,,,,,,oval_rectangle_061.png,period,1.4595,76,0,76,0,1,,,
,,,,,,,,35,60fd22fd64eeb0991e35412a,2021-07-26_22h14.55.169,glasses,2021.1.4,MacIntel,60.0024001,1,,,,,,,,,,,oval_rectangle_081.png,period,1.68,77,0,77,0,1,,,
,,,,,,,,35,60fd22fd64eeb0991e35412a,2021-07-26_22h14.55.169,glasses,2021.1.4,MacIntel,60.0024001,1,,,,,,,,,,,oval_rectangle_071.png,period,1.2016,78,0,78,0,1,,,
,,,,,,,,35,60fd22fd64eeb0991e35412a,2021-07-26_22h14.55.169,glasses,2021.1.4,MacIntel,60.0024001,1,,,,,,,,,,,oval_rectangle_001.png,x,1.1828,79,0,79,0,1,,,
,,,,,,,,35,60fd22fd64eeb0991e35412a,2021-07-26_22h14.55.169,glasses,2021.1.4,MacIntel,60.0024001,1,,,,,,,,,,,oval_rectangle_081.png,period,1.2791,80,0,80,0,1,,,
,,,,,,,,35,60fd22fd64eeb0991e35412a,2021-07-26_22h14.55.169,glasses,2021.1.4,MacIntel,60.0024001,1,,,,,,,,,,,oval_rectangle_041.png,x,1.1465,81,0,81,0,1,,,
,,,,,,,,35,60fd22fd64eeb0991e35412a,2021-07-26_22h14.55.169,glasses,2021.1.4,MacIntel,60.0024001,1,,,,,,,,,,,oval_rectangle_021.png,period,1.8286,82,0,82,0,1,,,
,,,,,,,,35,60fd22fd64eeb0991e35412a,2021-07-26_22h14.55.169,glasses,2021.1.4,MacIntel,60.0024001,1,,,,,,,,,,,oval_rectangle_031.png,x,0.9774,83,0,83,0,1,,,
,,,,,,,,35,60fd22fd64eeb0991e35412a,2021-07-26_22h14.55.169,glasses,2021.1.4,MacIntel,60.0024001,1,,,,,,,,,,,oval_rectangle_011.png,x,1.0915,84,0,84,0,1,,,
,,,,,,,,35,60fd22fd64eeb0991e35412a,2021-07-26_22h14.55.169,glasses,2021.1.4,MacIntel,60.0024001,1,,,,,,,,,,,oval_rectangle_031.png,x,1.0649,85,0,85,0,1,,,
,,,,,,,,35,60fd22fd64eeb0991e35412a,2021-07-26_22h14.55.169,glasses,2021.1.4,MacIntel,60.0024001,1,,,,,,,,,,,oval_rectangle_091.png,period,1.0731,86,0,86,0,1,,,
,,,,,,,,35,60fd22fd64eeb0991e35412a,2021-07-26_22h14.55.169,glasses,2021.1.4,MacIntel,60.0024001,1,,,,,,,,,,,oval_rectangle_071.png,period,1.2282,87,0,87,0,1,,,
,,,,,,,,35,60fd22fd64eeb0991e35412a,2021-07-26_22h14.55.169,glasses,2021.1.4,MacIntel,60.0024001,1,,,,,,,,,,,,,,,,,,,correct,period,24.1424
