condition,glasses1,glasses2,begin_loop.thisRepN,begin_loop.thisTrialN,begin_loop.thisN,begin_loop.thisIndex,begin_loop.ran,participant,PROLIFIC_ID*,date,expName,psychopyVersion,OS,frameRate,session,similarity_resp.keys,similarity_resp.rt,bl_loop.thisRepN,bl_loop.thisTrialN,bl_loop.thisN,bl_loop.thisIndex,bl_loop.ran,ask_glasses,glasses_left_num,glasses_right_num,classification_glasses,class_resp.keys,class_resp.rt,class_loop.thisRepN,class_loop.thisTrialN,class_loop.thisN,class_loop.thisIndex,class_loop.ran,manipulation_check,key_resp_3.keys,key_resp_3.rt
face_inverted_glasses,geometric_round_001.png,geometric_round_101.png,0,0,0,0,1,38,60fe0a8295a33168e57c2073,2021-07-27_01h14.59.879,glasses,2021.1.4,Win32,142.0454545,1,,,,,,,,,,,,,,,,,,,,,
,,,,,,,,38,60fe0a8295a33168e57c2073,2021-07-27_01h14.59.879,glasses,2021.1.4,Win32,142.0454545,1,x,4.5115,0,0,0,18,1,glasses2,0,2,,,,,,,,,,,
,,,,,,,,38,60fe0a8295a33168e57c2073,2021-07-27_01h14.59.879,glasses,2021.1.4,Win32,142.0454545,1,x,1.8237,0,1,1,1,1,glasses1,2,4,,,,,,,,,,,
,,,,,,,,38,60fe0a8295a33168e57c2073,2021-07-27_01h14.59.879,glasses,2021.1.4,Win32,142.0454545,1,x,2.9113,0,2,2,32,1,glasses2,3,1,,,,,,,,,,,
,,,,,,,,38,60fe0a8295a33168e57c2073,2021-07-27_01h14.59.879,glasses,2021.1.4,Win32,142.0454545,1,period,1.3325,0,3,3,19,1,glasses2,2,4,,,,,,,,,,,
,,,,,,,,38,60fe0a8295a33168e57c2073,2021-07-27_01h14.59.879,glasses,2021.1.4,Win32,142.0454545,1,x,0.5547,0,4,4,28,1,glasses2,4,2,,,,,,,,,,,
,,,,,,,,38,60fe0a8295a33168e57c2073,2021-07-27_01h14.59.879,glasses,2021.1.4,Win32,142.0454545,1,period,1.2477,0,5,5,17,1,glasses1,9,7,,,,,,,,,,,
,,,,,,,,38,60fe0a8295a33168e57c2073,2021-07-27_01h14.59.879,glasses,2021.1.4,Win32,142.0454545,1,x,1.2387,0,6,6,8,1,glasses1,7,9,,,,,,,,,,,
,,,,,,,,38,60fe0a8295a33168e57c2073,2021-07-27_01h14.59.879,glasses,2021.1.4,Win32,142.0454545,1,x,1.5431,0,7,7,6,1,glasses1,3,5,,,,,,,,,,,
,,,,,,,,38,60fe0a8295a33168e57c2073,2021-07-27_01h14.59.879,glasses,2021.1.4,Win32,142.0454545,1,period,1.2928,0,8,8,21,1,glasses2,6,8,,,,,,,,,,,
,,,,,,,,38,60fe0a8295a33168e57c2073,2021-07-27_01h14.59.879,glasses,2021.1.4,Win32,142.0454545,1,x,1.5901,0,9,9,30,1,glasses2,8,6,,,,,,,,,,,
,,,,,,,,38,60fe0a8295a33168e57c2073,2021-07-27_01h14.59.879,glasses,2021.1.4,Win32,142.0454545,1,x,2.4735,0,10,10,11,1,glasses1,6,4,,,,,,,,,,,
,,,,,,,,38,60fe0a8295a33168e57c2073,2021-07-27_01h14.59.879,glasses,2021.1.4,Win32,142.0454545,1,period,2.866,0,11,11,23,1,glasses2,1,3,,,,,,,,,,,
,,,,,,,,38,60fe0a8295a33168e57c2073,2021-07-27_01h14.59.879,glasses,2021.1.4,Win32,142.0454545,1,x,1.2119,0,12,12,9,1,glasses1,2,0,,,,,,,,,,,
,,,,,,,,38,60fe0a8295a33168e57c2073,2021-07-27_01h14.59.879,glasses,2021.1.4,Win32,142.0454545,1,x,1.4955,0,13,13,29,1,glasses2,6,4,,,,,,,,,,,
,,,,,,,,38,60fe0a8295a33168e57c2073,2021-07-27_01h14.59.879,glasses,2021.1.4,Win32,142.0454545,1,x,1.3846,0,14,14,33,1,glasses2,5,3,,,,,,,,,,,
,,,,,,,,38,60fe0a8295a33168e57c2073,2021-07-27_01h14.59.879,glasses,2021.1.4,Win32,142.0454545,1,period,2.0282,0,15,15,10,1,glasses1,4,2,,,,,,,,,,,
,,,,,,,,38,60fe0a8295a33168e57c2073,2021-07-27_01h14.59.879,glasses,2021.1.4,Win32,142.0454545,1,x,2.7887,0,16,16,27,1,glasses2,2,0,,,,,,,,,,,
,,,,,,,,38,60fe0a8295a33168e57c2073,2021-07-27_01h14.59.879,glasses,2021.1.4,Win32,142.0454545,1,x,1.5221,0,17,17,31,1,glasses2,10,8,,,,,,,,,,,
,,,,,,,,38,60fe0a8295a33168e57c2073,2021-07-27_01h14.59.879,glasses,2021.1.4,Win32,142.0454545,1,period,1.4746,0,18,18,22,1,glasses2,8,10,,,,,,,,,,,
,,,,,,,,38,60fe0a8295a33168e57c2073,2021-07-27_01h14.59.879,glasses,2021.1.4,Win32,142.0454545,1,period,4.8269,0,19,19,14,1,glasses1,3,1,,,,,,,,,,,
,,,,,,,,38,60fe0a8295a33168e57c2073,2021-07-27_01h14.59.879,glasses,2021.1.4,Win32,142.0454545,1,period,1.3747,0,20,20,26,1,glasses2,7,9,,,,,,,,,,,
,,,,,,,,38,60fe0a8295a33168e57c2073,2021-07-27_01h14.59.879,glasses,2021.1.4,Win32,142.0454545,1,period,2.3663,0,21,21,0,1,glasses1,0,2,,,,,,,,,,,
,,,,,,,,38,60fe0a8295a33168e57c2073,2021-07-27_01h14.59.879,glasses,2021.1.4,Win32,142.0454545,1,x,1.421,0,22,22,7,1,glasses1,5,7,,,,,,,,,,,
,,,,,,,,38,60fe0a8295a33168e57c2073,2021-07-27_01h14.59.879,glasses,2021.1.4,Win32,142.0454545,1,period,1.4306,0,23,23,25,1,glasses2,5,7,,,,,,,,,,,
,,,,,,,,38,60fe0a8295a33168e57c2073,2021-07-27_01h14.59.879,glasses,2021.1.4,Win32,142.0454545,1,x,1.549,0,24,24,2,1,glasses1,4,6,,,,,,,,,,,
,,,,,,,,38,60fe0a8295a33168e57c2073,2021-07-27_01h14.59.879,glasses,2021.1.4,Win32,142.0454545,1,period,1.5197,0,25,25,20,1,glasses2,4,6,,,,,,,,,,,
,,,,,,,,38,60fe0a8295a33168e57c2073,2021-07-27_01h14.59.879,glasses,2021.1.4,Win32,142.0454545,1,x,1.5656,0,26,26,4,1,glasses1,8,10,,,,,,,,,,,
,,,,,,,,38,60fe0a8295a33168e57c2073,2021-07-27_01h14.59.879,glasses,2021.1.4,Win32,142.0454545,1,x,1.3952,0,27,27,34,1,glasses2,7,5,,,,,,,,,,,
,,,,,,,,38,60fe0a8295a33168e57c2073,2021-07-27_01h14.59.879,glasses,2021.1.4,Win32,142.0454545,1,x,1.7282,0,28,28,3,1,glasses1,6,8,,,,,,,,,,,
,,,,,,,,38,60fe0a8295a33168e57c2073,2021-07-27_01h14.59.879,glasses,2021.1.4,Win32,142.0454545,1,period,1.5575,0,29,29,13,1,glasses1,10,8,,,,,,,,,,,
,,,,,,,,38,60fe0a8295a33168e57c2073,2021-07-27_01h14.59.879,glasses,2021.1.4,Win32,142.0454545,1,x,1.2308,0,30,30,35,1,glasses2,9,7,,,,,,,,,,,
,,,,,,,,38,60fe0a8295a33168e57c2073,2021-07-27_01h14.59.879,glasses,2021.1.4,Win32,142.0454545,1,period,0.859,0,31,31,12,1,glasses1,8,6,,,,,,,,,,,
,,,,,,,,38,60fe0a8295a33168e57c2073,2021-07-27_01h14.59.879,glasses,2021.1.4,Win32,142.0454545,1,period,2.1577,0,32,32,16,1,glasses1,7,5,,,,,,,,,,,
,,,,,,,,38,60fe0a8295a33168e57c2073,2021-07-27_01h14.59.879,glasses,2021.1.4,Win32,142.0454545,1,period,1.3272,0,33,33,24,1,glasses2,3,5,,,,,,,,,,,
,,,,,,,,38,60fe0a8295a33168e57c2073,2021-07-27_01h14.59.879,glasses,2021.1.4,Win32,142.0454545,1,x,1.4778,0,34,34,5,1,glasses1,1,3,,,,,,,,,,,
,,,,,,,,38,60fe0a8295a33168e57c2073,2021-07-27_01h14.59.879,glasses,2021.1.4,Win32,142.0454545,1,period,1.7714,0,35,35,15,1,glasses1,5,3,,,,,,,,,,,
,,,,,,,,38,60fe0a8295a33168e57c2073,2021-07-27_01h14.59.879,glasses,2021.1.4,Win32,142.0454545,1,,,,,,,,,,,geometric_round_091.png,period,2.7827,0,0,0,0,1,,,
,,,,,,,,38,60fe0a8295a33168e57c2073,2021-07-27_01h14.59.879,glasses,2021.1.4,Win32,142.0454545,1,,,,,,,,,,,geometric_round_041.png,x,1.409,1,0,1,0,1,,,
,,,,,,,,38,60fe0a8295a33168e57c2073,2021-07-27_01h14.59.879,glasses,2021.1.4,Win32,142.0454545,1,,,,,,,,,,,geometric_round_061.png,period,1.274,2,0,2,0,1,,,
,,,,,,,,38,60fe0a8295a33168e57c2073,2021-07-27_01h14.59.879,glasses,2021.1.4,Win32,142.0454545,1,,,,,,,,,,,geometric_round_091.png,period,0.9834,3,0,3,0,1,,,
,,,,,,,,38,60fe0a8295a33168e57c2073,2021-07-27_01h14.59.879,glasses,2021.1.4,Win32,142.0454545,1,,,,,,,,,,,geometric_round_061.png,period,0.987,4,0,4,0,1,,,
,,,,,,,,38,60fe0a8295a33168e57c2073,2021-07-27_01h14.59.879,glasses,2021.1.4,Win32,142.0454545,1,,,,,,,,,,,geometric_round_081.png,period,0.9692,5,0,5,0,1,,,
,,,,,,,,38,60fe0a8295a33168e57c2073,2021-07-27_01h14.59.879,glasses,2021.1.4,Win32,142.0454545,1,,,,,,,,,,,geometric_round_011.png,x,0.5293,6,0,6,0,1,,,
,,,,,,,,38,60fe0a8295a33168e57c2073,2021-07-27_01h14.59.879,glasses,2021.1.4,Win32,142.0454545,1,,,,,,,,,,,geometric_round_011.png,x,0.7639,7,0,7,0,1,,,
,,,,,,,,38,60fe0a8295a33168e57c2073,2021-07-27_01h14.59.879,glasses,2021.1.4,Win32,142.0454545,1,,,,,,,,,,,geometric_round_031.png,x,1.4924,8,0,8,0,1,,,
,,,,,,,,38,60fe0a8295a33168e57c2073,2021-07-27_01h14.59.879,glasses,2021.1.4,Win32,142.0454545,1,,,,,,,,,,,geometric_round_011.png,x,0.9985,9,0,9,0,1,,,
,,,,,,,,38,60fe0a8295a33168e57c2073,2021-07-27_01h14.59.879,glasses,2021.1.4,Win32,142.0454545,1,,,,,,,,,,,geometric_round_051.png,period,1.5293,10,0,10,0,1,,,
,,,,,,,,38,60fe0a8295a33168e57c2073,2021-07-27_01h14.59.879,glasses,2021.1.4,Win32,142.0454545,1,,,,,,,,,,,geometric_round_021.png,x,1.5195,11,0,11,0,1,,,
,,,,,,,,38,60fe0a8295a33168e57c2073,2021-07-27_01h14.59.879,glasses,2021.1.4,Win32,142.0454545,1,,,,,,,,,,,geometric_round_051.png,period,1.2516,12,0,12,0,1,,,
,,,,,,,,38,60fe0a8295a33168e57c2073,2021-07-27_01h14.59.879,glasses,2021.1.4,Win32,142.0454545,1,,,,,,,,,,,geometric_round_031.png,x,1.171,13,0,13,0,1,,,
,,,,,,,,38,60fe0a8295a33168e57c2073,2021-07-27_01h14.59.879,glasses,2021.1.4,Win32,142.0454545,1,,,,,,,,,,,geometric_round_021.png,x,1.1277,14,0,14,0,1,,,
,,,,,,,,38,60fe0a8295a33168e57c2073,2021-07-27_01h14.59.879,glasses,2021.1.4,Win32,142.0454545,1,,,,,,,,,,,geometric_round_001.png,x,1.1454,15,0,15,0,1,,,
,,,,,,,,38,60fe0a8295a33168e57c2073,2021-07-27_01h14.59.879,glasses,2021.1.4,Win32,142.0454545,1,,,,,,,,,,,geometric_round_041.png,period,1.0933,16,0,16,0,1,,,
,,,,,,,,38,60fe0a8295a33168e57c2073,2021-07-27_01h14.59.879,glasses,2021.1.4,Win32,142.0454545,1,,,,,,,,,,,geometric_round_031.png,period,1.4491,17,0,17,0,1,,,
,,,,,,,,38,60fe0a8295a33168e57c2073,2021-07-27_01h14.59.879,glasses,2021.1.4,Win32,142.0454545,1,,,,,,,,,,,geometric_round_091.png,period,0.9824,18,0,18,0,1,,,
,,,,,,,,38,60fe0a8295a33168e57c2073,2021-07-27_01h14.59.879,glasses,2021.1.4,Win32,142.0454545,1,,,,,,,,,,,geometric_round_101.png,period,0.9367,19,0,19,0,1,,,
,,,,,,,,38,60fe0a8295a33168e57c2073,2021-07-27_01h14.59.879,glasses,2021.1.4,Win32,142.0454545,1,,,,,,,,,,,geometric_round_001.png,x,0.9206,20,0,20,0,1,,,
,,,,,,,,38,60fe0a8295a33168e57c2073,2021-07-27_01h14.59.879,glasses,2021.1.4,Win32,142.0454545,1,,,,,,,,,,,geometric_round_081.png,period,0.9875,21,0,21,0,1,,,
,,,,,,,,38,60fe0a8295a33168e57c2073,2021-07-27_01h14.59.879,glasses,2021.1.4,Win32,142.0454545,1,,,,,,,,,,,geometric_round_061.png,period,1.0955,22,0,22,0,1,,,
,,,,,,,,38,60fe0a8295a33168e57c2073,2021-07-27_01h14.59.879,glasses,2021.1.4,Win32,142.0454545,1,,,,,,,,,,,geometric_round_031.png,x,0.9781,23,0,23,0,1,,,
,,,,,,,,38,60fe0a8295a33168e57c2073,2021-07-27_01h14.59.879,glasses,2021.1.4,Win32,142.0454545,1,,,,,,,,,,,geometric_round_011.png,x,1.0163,24,0,24,0,1,,,
,,,,,,,,38,60fe0a8295a33168e57c2073,2021-07-27_01h14.59.879,glasses,2021.1.4,Win32,142.0454545,1,,,,,,,,,,,geometric_round_051.png,period,1.0392,25,0,25,0,1,,,
,,,,,,,,38,60fe0a8295a33168e57c2073,2021-07-27_01h14.59.879,glasses,2021.1.4,Win32,142.0454545,1,,,,,,,,,,,geometric_round_001.png,x,0.8776,26,0,26,0,1,,,
,,,,,,,,38,60fe0a8295a33168e57c2073,2021-07-27_01h14.59.879,glasses,2021.1.4,Win32,142.0454545,1,,,,,,,,,,,geometric_round_091.png,period,0.6482,27,0,27,0,1,,,
,,,,,,,,38,60fe0a8295a33168e57c2073,2021-07-27_01h14.59.879,glasses,2021.1.4,Win32,142.0454545,1,,,,,,,,,,,geometric_round_081.png,period,0.6006,28,0,28,0,1,,,
,,,,,,,,38,60fe0a8295a33168e57c2073,2021-07-27_01h14.59.879,glasses,2021.1.4,Win32,142.0454545,1,,,,,,,,,,,geometric_round_101.png,period,0.6055,29,0,29,0,1,,,
,,,,,,,,38,60fe0a8295a33168e57c2073,2021-07-27_01h14.59.879,glasses,2021.1.4,Win32,142.0454545,1,,,,,,,,,,,geometric_round_021.png,x,0.5476,30,0,30,0,1,,,
,,,,,,,,38,60fe0a8295a33168e57c2073,2021-07-27_01h14.59.879,glasses,2021.1.4,Win32,142.0454545,1,,,,,,,,,,,geometric_round_101.png,period,0.562,31,0,31,0,1,,,
,,,,,,,,38,60fe0a8295a33168e57c2073,2021-07-27_01h14.59.879,glasses,2021.1.4,Win32,142.0454545,1,,,,,,,,,,,geometric_round_071.png,period,0.8039,32,0,32,0,1,,,
,,,,,,,,38,60fe0a8295a33168e57c2073,2021-07-27_01h14.59.879,glasses,2021.1.4,Win32,142.0454545,1,,,,,,,,,,,geometric_round_081.png,period,1.4356,33,0,33,0,1,,,
,,,,,,,,38,60fe0a8295a33168e57c2073,2021-07-27_01h14.59.879,glasses,2021.1.4,Win32,142.0454545,1,,,,,,,,,,,geometric_round_041.png,x,0.6757,34,0,34,0,1,,,
,,,,,,,,38,60fe0a8295a33168e57c2073,2021-07-27_01h14.59.879,glasses,2021.1.4,Win32,142.0454545,1,,,,,,,,,,,geometric_round_071.png,period,0.9158,35,0,35,0,1,,,
,,,,,,,,38,60fe0a8295a33168e57c2073,2021-07-27_01h14.59.879,glasses,2021.1.4,Win32,142.0454545,1,,,,,,,,,,,geometric_round_071.png,period,0.6096,36,0,36,0,1,,,
,,,,,,,,38,60fe0a8295a33168e57c2073,2021-07-27_01h14.59.879,glasses,2021.1.4,Win32,142.0454545,1,,,,,,,,,,,geometric_round_041.png,x,0.6474,37,0,37,0,1,,,
,,,,,,,,38,60fe0a8295a33168e57c2073,2021-07-27_01h14.59.879,glasses,2021.1.4,Win32,142.0454545,1,,,,,,,,,,,geometric_round_101.png,period,0.5357,38,0,38,0,1,,,
,,,,,,,,38,60fe0a8295a33168e57c2073,2021-07-27_01h14.59.879,glasses,2021.1.4,Win32,142.0454545,1,,,,,,,,,,,geometric_round_071.png,period,0.5354,39,0,39,0,1,,,
,,,,,,,,38,60fe0a8295a33168e57c2073,2021-07-27_01h14.59.879,glasses,2021.1.4,Win32,142.0454545,1,,,,,,,,,,,geometric_round_051.png,period,0.7834,40,0,40,0,1,,,
,,,,,,,,38,60fe0a8295a33168e57c2073,2021-07-27_01h14.59.879,glasses,2021.1.4,Win32,142.0454545,1,,,,,,,,,,,geometric_round_091.png,period,0.4645,41,0,41,0,1,,,
,,,,,,,,38,60fe0a8295a33168e57c2073,2021-07-27_01h14.59.879,glasses,2021.1.4,Win32,142.0454545,1,,,,,,,,,,,geometric_round_101.png,period,0.4474,42,0,42,0,1,,,
,,,,,,,,38,60fe0a8295a33168e57c2073,2021-07-27_01h14.59.879,glasses,2021.1.4,Win32,142.0454545,1,,,,,,,,,,,geometric_round_071.png,period,0.6309,43,0,43,0,1,,,
,,,,,,,,38,60fe0a8295a33168e57c2073,2021-07-27_01h14.59.879,glasses,2021.1.4,Win32,142.0454545,1,,,,,,,,,,,geometric_round_011.png,x,0.4018,44,0,44,0,1,,,
,,,,,,,,38,60fe0a8295a33168e57c2073,2021-07-27_01h14.59.879,glasses,2021.1.4,Win32,142.0454545,1,,,,,,,,,,,geometric_round_061.png,period,1.187,45,0,45,0,1,,,
,,,,,,,,38,60fe0a8295a33168e57c2073,2021-07-27_01h14.59.879,glasses,2021.1.4,Win32,142.0454545,1,,,,,,,,,,,geometric_round_021.png,x,0.497,46,0,46,0,1,,,
,,,,,,,,38,60fe0a8295a33168e57c2073,2021-07-27_01h14.59.879,glasses,2021.1.4,Win32,142.0454545,1,,,,,,,,,,,geometric_round_091.png,period,0.478,47,0,47,0,1,,,
,,,,,,,,38,60fe0a8295a33168e57c2073,2021-07-27_01h14.59.879,glasses,2021.1.4,Win32,142.0454545,1,,,,,,,,,,,geometric_round_051.png,x,0.603,48,0,48,0,1,,,
,,,,,,,,38,60fe0a8295a33168e57c2073,2021-07-27_01h14.59.879,glasses,2021.1.4,Win32,142.0454545,1,,,,,,,,,,,geometric_round_001.png,x,0.671,49,0,49,0,1,,,
,,,,,,,,38,60fe0a8295a33168e57c2073,2021-07-27_01h14.59.879,glasses,2021.1.4,Win32,142.0454545,1,,,,,,,,,,,geometric_round_091.png,period,0.5227,50,0,50,0,1,,,
,,,,,,,,38,60fe0a8295a33168e57c2073,2021-07-27_01h14.59.879,glasses,2021.1.4,Win32,142.0454545,1,,,,,,,,,,,geometric_round_011.png,x,0.5413,51,0,51,0,1,,,
,,,,,,,,38,60fe0a8295a33168e57c2073,2021-07-27_01h14.59.879,glasses,2021.1.4,Win32,142.0454545,1,,,,,,,,,,,geometric_round_051.png,period,0.7665,52,0,52,0,1,,,
,,,,,,,,38,60fe0a8295a33168e57c2073,2021-07-27_01h14.59.879,glasses,2021.1.4,Win32,142.0454545,1,,,,,,,,,,,geometric_round_101.png,period,0.5092,53,0,53,0,1,,,
,,,,,,,,38,60fe0a8295a33168e57c2073,2021-07-27_01h14.59.879,glasses,2021.1.4,Win32,142.0454545,1,,,,,,,,,,,geometric_round_071.png,period,0.7071,54,0,54,0,1,,,
,,,,,,,,38,60fe0a8295a33168e57c2073,2021-07-27_01h14.59.879,glasses,2021.1.4,Win32,142.0454545,1,,,,,,,,,,,geometric_round_051.png,period,0.7414,55,0,55,0,1,,,
,,,,,,,,38,60fe0a8295a33168e57c2073,2021-07-27_01h14.59.879,glasses,2021.1.4,Win32,142.0454545,1,,,,,,,,,,,geometric_round_051.png,period,0.7301,56,0,56,0,1,,,
,,,,,,,,38,60fe0a8295a33168e57c2073,2021-07-27_01h14.59.879,glasses,2021.1.4,Win32,142.0454545,1,,,,,,,,,,,geometric_round_011.png,x,0.3784,57,0,57,0,1,,,
,,,,,,,,38,60fe0a8295a33168e57c2073,2021-07-27_01h14.59.879,glasses,2021.1.4,Win32,142.0454545,1,,,,,,,,,,,geometric_round_041.png,x,0.6737,58,0,58,0,1,,,
,,,,,,,,38,60fe0a8295a33168e57c2073,2021-07-27_01h14.59.879,glasses,2021.1.4,Win32,142.0454545,1,,,,,,,,,,,geometric_round_081.png,period,0.4827,59,0,59,0,1,,,
,,,,,,,,38,60fe0a8295a33168e57c2073,2021-07-27_01h14.59.879,glasses,2021.1.4,Win32,142.0454545,1,,,,,,,,,,,geometric_round_021.png,x,0.5758,60,0,60,0,1,,,
,,,,,,,,38,60fe0a8295a33168e57c2073,2021-07-27_01h14.59.879,glasses,2021.1.4,Win32,142.0454545,1,,,,,,,,,,,geometric_round_021.png,x,0.5677,61,0,61,0,1,,,
,,,,,,,,38,60fe0a8295a33168e57c2073,2021-07-27_01h14.59.879,glasses,2021.1.4,Win32,142.0454545,1,,,,,,,,,,,geometric_round_081.png,period,0.4749,62,0,62,0,1,,,
,,,,,,,,38,60fe0a8295a33168e57c2073,2021-07-27_01h14.59.879,glasses,2021.1.4,Win32,142.0454545,1,,,,,,,,,,,geometric_round_001.png,x,0.4914,63,0,63,0,1,,,
,,,,,,,,38,60fe0a8295a33168e57c2073,2021-07-27_01h14.59.879,glasses,2021.1.4,Win32,142.0454545,1,,,,,,,,,,,geometric_round_071.png,period,0.8455,64,0,64,0,1,,,
,,,,,,,,38,60fe0a8295a33168e57c2073,2021-07-27_01h14.59.879,glasses,2021.1.4,Win32,142.0454545,1,,,,,,,,,,,geometric_round_081.png,period,0.624,65,0,65,0,1,,,
,,,,,,,,38,60fe0a8295a33168e57c2073,2021-07-27_01h14.59.879,glasses,2021.1.4,Win32,142.0454545,1,,,,,,,,,,,geometric_round_031.png,x,0.5899,66,0,66,0,1,,,
,,,,,,,,38,60fe0a8295a33168e57c2073,2021-07-27_01h14.59.879,glasses,2021.1.4,Win32,142.0454545,1,,,,,,,,,,,geometric_round_021.png,x,0.503,67,0,67,0,1,,,
,,,,,,,,38,60fe0a8295a33168e57c2073,2021-07-27_01h14.59.879,glasses,2021.1.4,Win32,142.0454545,1,,,,,,,,,,,geometric_round_041.png,x,0.565,68,0,68,0,1,,,
,,,,,,,,38,60fe0a8295a33168e57c2073,2021-07-27_01h14.59.879,glasses,2021.1.4,Win32,142.0454545,1,,,,,,,,,,,geometric_round_031.png,x,0.6416,69,0,69,0,1,,,
,,,,,,,,38,60fe0a8295a33168e57c2073,2021-07-27_01h14.59.879,glasses,2021.1.4,Win32,142.0454545,1,,,,,,,,,,,geometric_round_041.png,period,0.8217,70,0,70,0,1,,,
,,,,,,,,38,60fe0a8295a33168e57c2073,2021-07-27_01h14.59.879,glasses,2021.1.4,Win32,142.0454545,1,,,,,,,,,,,geometric_round_061.png,period,0.5447,71,0,71,0,1,,,
,,,,,,,,38,60fe0a8295a33168e57c2073,2021-07-27_01h14.59.879,glasses,2021.1.4,Win32,142.0454545,1,,,,,,,,,,,geometric_round_061.png,period,0.4939,72,0,72,0,1,,,
,,,,,,,,38,60fe0a8295a33168e57c2073,2021-07-27_01h14.59.879,glasses,2021.1.4,Win32,142.0454545,1,,,,,,,,,,,geometric_round_091.png,period,0.4919,73,0,73,0,1,,,
,,,,,,,,38,60fe0a8295a33168e57c2073,2021-07-27_01h14.59.879,glasses,2021.1.4,Win32,142.0454545,1,,,,,,,,,,,geometric_round_081.png,period,0.4994,74,0,74,0,1,,,
,,,,,,,,38,60fe0a8295a33168e57c2073,2021-07-27_01h14.59.879,glasses,2021.1.4,Win32,142.0454545,1,,,,,,,,,,,geometric_round_061.png,period,0.572,75,0,75,0,1,,,
,,,,,,,,38,60fe0a8295a33168e57c2073,2021-07-27_01h14.59.879,glasses,2021.1.4,Win32,142.0454545,1,,,,,,,,,,,geometric_round_031.png,x,0.6572,76,0,76,0,1,,,
,,,,,,,,38,60fe0a8295a33168e57c2073,2021-07-27_01h14.59.879,glasses,2021.1.4,Win32,142.0454545,1,,,,,,,,,,,geometric_round_101.png,period,0.423,77,0,77,0,1,,,
,,,,,,,,38,60fe0a8295a33168e57c2073,2021-07-27_01h14.59.879,glasses,2021.1.4,Win32,142.0454545,1,,,,,,,,,,,geometric_round_041.png,x,0.4479,78,0,78,0,1,,,
,,,,,,,,38,60fe0a8295a33168e57c2073,2021-07-27_01h14.59.879,glasses,2021.1.4,Win32,142.0454545,1,,,,,,,,,,,geometric_round_011.png,x,0.4913,79,0,79,0,1,,,
,,,,,,,,38,60fe0a8295a33168e57c2073,2021-07-27_01h14.59.879,glasses,2021.1.4,Win32,142.0454545,1,,,,,,,,,,,geometric_round_031.png,x,0.4485,80,0,80,0,1,,,
,,,,,,,,38,60fe0a8295a33168e57c2073,2021-07-27_01h14.59.879,glasses,2021.1.4,Win32,142.0454545,1,,,,,,,,,,,geometric_round_001.png,x,0.5383,81,0,81,0,1,,,
,,,,,,,,38,60fe0a8295a33168e57c2073,2021-07-27_01h14.59.879,glasses,2021.1.4,Win32,142.0454545,1,,,,,,,,,,,geometric_round_001.png,x,0.5974,82,0,82,0,1,,,
,,,,,,,,38,60fe0a8295a33168e57c2073,2021-07-27_01h14.59.879,glasses,2021.1.4,Win32,142.0454545,1,,,,,,,,,,,geometric_round_071.png,period,0.4901,83,0,83,0,1,,,
,,,,,,,,38,60fe0a8295a33168e57c2073,2021-07-27_01h14.59.879,glasses,2021.1.4,Win32,142.0454545,1,,,,,,,,,,,geometric_round_021.png,x,0.4476,84,0,84,0,1,,,
,,,,,,,,38,60fe0a8295a33168e57c2073,2021-07-27_01h14.59.879,glasses,2021.1.4,Win32,142.0454545,1,,,,,,,,,,,geometric_round_001.png,x,0.5176,85,0,85,0,1,,,
,,,,,,,,38,60fe0a8295a33168e57c2073,2021-07-27_01h14.59.879,glasses,2021.1.4,Win32,142.0454545,1,,,,,,,,,,,geometric_round_101.png,period,0.4389,86,0,86,0,1,,,
,,,,,,,,38,60fe0a8295a33168e57c2073,2021-07-27_01h14.59.879,glasses,2021.1.4,Win32,142.0454545,1,,,,,,,,,,,geometric_round_061.png,period,0.6272,87,0,87,0,1,,,
,,,,,,,,38,60fe0a8295a33168e57c2073,2021-07-27_01h14.59.879,glasses,2021.1.4,Win32,142.0454545,1,,,,,,,,,,,,,,,,,,,correct,x,12.8916
