condition,glasses1,glasses2,begin_loop.thisRepN,begin_loop.thisTrialN,begin_loop.thisN,begin_loop.thisIndex,begin_loop.ran,participant,PROLIFIC_ID*,date,expName,psychopyVersion,OS,frameRate,session,similarity_resp.keys,similarity_resp.rt,bl_loop.thisRepN,bl_loop.thisTrialN,bl_loop.thisN,bl_loop.thisIndex,bl_loop.ran,ask_glasses,glasses_left_num,glasses_right_num,classification_glasses,class_resp.keys,class_resp.rt,class_loop.thisRepN,class_loop.thisTrialN,class_loop.thisN,class_loop.thisIndex,class_loop.ran,manipulation_check,key_resp_3.keys,key_resp_3.rt
face_upright_glasses,round_square_001.png,round_square_101.png,0,0,0,0,1,4,60ff5c2a4d3f0403c633be35,2021-07-27_00h53.58.752,glasses,2021.1.4,MacIntel,60.0024001,1,,,,,,,,,,,,,,,,,,,,,
,round_square_001.png,round_square_101.png,1,0,1,0,1,4,60ff5c2a4d3f0403c633be35,2021-07-27_00h53.58.752,glasses,2021.1.4,MacIntel,60.0024001,1,,,,,,,,,,,,,,,,,,,,,
,,,,,,,,4,60ff5c2a4d3f0403c633be35,2021-07-27_00h53.58.752,glasses,2021.1.4,MacIntel,60.0024001,1,x,9.4727,0,0,0,35,1,glasses2,9,7,,,,,,,,,,,
,,,,,,,,4,60ff5c2a4d3f0403c633be35,2021-07-27_00h53.58.752,glasses,2021.1.4,MacIntel,60.0024001,1,x,2.1214,0,1,1,4,1,glasses1,8,10,,,,,,,,,,,
,,,,,,,,4,60ff5c2a4d3f0403c633be35,2021-07-27_00h53.58.752,glasses,2021.1.4,MacIntel,60.0024001,1,period,1.4429,0,2,2,22,1,glasses2,8,10,,,,,,,,,,,
,,,,,,,,4,60ff5c2a4d3f0403c633be35,2021-07-27_00h53.58.752,glasses,2021.1.4,MacIntel,60.0024001,1,x,1.5831,0,3,3,0,1,glasses1,0,2,,,,,,,,,,,
,,,,,,,,4,60ff5c2a4d3f0403c633be35,2021-07-27_00h53.58.752,glasses,2021.1.4,MacIntel,60.0024001,1,period,2.2755,0,4,4,29,1,glasses2,6,4,,,,,,,,,,,
,,,,,,,,4,60ff5c2a4d3f0403c633be35,2021-07-27_00h53.58.752,glasses,2021.1.4,MacIntel,60.0024001,1,period,2.1763,0,5,5,16,1,glasses1,7,5,,,,,,,,,,,
,,,,,,,,4,60ff5c2a4d3f0403c633be35,2021-07-27_00h53.58.752,glasses,2021.1.4,MacIntel,60.0024001,1,x,3.1237,0,6,6,31,1,glasses2,10,8,,,,,,,,,,,
,,,,,,,,4,60ff5c2a4d3f0403c633be35,2021-07-27_00h53.58.752,glasses,2021.1.4,MacIntel,60.0024001,1,period,1.8573,0,7,7,26,1,glasses2,7,9,,,,,,,,,,,
,,,,,,,,4,60ff5c2a4d3f0403c633be35,2021-07-27_00h53.58.752,glasses,2021.1.4,MacIntel,60.0024001,1,x,1.4429,0,8,8,5,1,glasses1,1,3,,,,,,,,,,,
,,,,,,,,4,60ff5c2a4d3f0403c633be35,2021-07-27_00h53.58.752,glasses,2021.1.4,MacIntel,60.0024001,1,period,2.621,0,9,9,17,1,glasses1,9,7,,,,,,,,,,,
,,,,,,,,4,60ff5c2a4d3f0403c633be35,2021-07-27_00h53.58.752,glasses,2021.1.4,MacIntel,60.0024001,1,x,1.654,0,10,10,1,1,glasses1,2,4,,,,,,,,,,,
,,,,,,,,4,60ff5c2a4d3f0403c633be35,2021-07-27_00h53.58.752,glasses,2021.1.4,MacIntel,60.0024001,1,x,1.5405,0,11,11,33,1,glasses2,5,3,,,,,,,,,,,
,,,,,,,,4,60ff5c2a4d3f0403c633be35,2021-07-27_00h53.58.752,glasses,2021.1.4,MacIntel,60.0024001,1,x,1.5988,0,12,12,30,1,glasses2,8,6,,,,,,,,,,,
,,,,,,,,4,60ff5c2a4d3f0403c633be35,2021-07-27_00h53.58.752,glasses,2021.1.4,MacIntel,60.0024001,1,period,2.7499,0,13,13,8,1,glasses1,7,9,,,,,,,,,,,
,,,,,,,,4,60ff5c2a4d3f0403c633be35,2021-07-27_00h53.58.752,glasses,2021.1.4,MacIntel,60.0024001,1,period,1.417,0,14,14,10,1,glasses1,4,2,,,,,,,,,,,
,,,,,,,,4,60ff5c2a4d3f0403c633be35,2021-07-27_00h53.58.752,glasses,2021.1.4,MacIntel,60.0024001,1,x,1.9792,0,15,15,21,1,glasses2,6,8,,,,,,,,,,,
,,,,,,,,4,60ff5c2a4d3f0403c633be35,2021-07-27_00h53.58.752,glasses,2021.1.4,MacIntel,60.0024001,1,period,1.7725,0,16,16,28,1,glasses2,4,2,,,,,,,,,,,
,,,,,,,,4,60ff5c2a4d3f0403c633be35,2021-07-27_00h53.58.752,glasses,2021.1.4,MacIntel,60.0024001,1,x,1.6384,0,17,17,34,1,glasses2,7,5,,,,,,,,,,,
,,,,,,,,4,60ff5c2a4d3f0403c633be35,2021-07-27_00h53.58.752,glasses,2021.1.4,MacIntel,60.0024001,1,x,1.3885,0,18,18,6,1,glasses1,3,5,,,,,,,,,,,
,,,,,,,,4,60ff5c2a4d3f0403c633be35,2021-07-27_00h53.58.752,glasses,2021.1.4,MacIntel,60.0024001,1,period,1.6427,0,19,19,23,1,glasses2,1,3,,,,,,,,,,,
,,,,,,,,4,60ff5c2a4d3f0403c633be35,2021-07-27_00h53.58.752,glasses,2021.1.4,MacIntel,60.0024001,1,period,1.5424,0,20,20,20,1,glasses2,4,6,,,,,,,,,,,
,,,,,,,,4,60ff5c2a4d3f0403c633be35,2021-07-27_00h53.58.752,glasses,2021.1.4,MacIntel,60.0024001,1,period,1.7912,0,21,21,12,1,glasses1,8,6,,,,,,,,,,,
,,,,,,,,4,60ff5c2a4d3f0403c633be35,2021-07-27_00h53.58.752,glasses,2021.1.4,MacIntel,60.0024001,1,x,1.6904,0,22,22,19,1,glasses2,2,4,,,,,,,,,,,
,,,,,,,,4,60ff5c2a4d3f0403c633be35,2021-07-27_00h53.58.752,glasses,2021.1.4,MacIntel,60.0024001,1,period,1.2649,0,23,23,25,1,glasses2,5,7,,,,,,,,,,,
,,,,,,,,4,60ff5c2a4d3f0403c633be35,2021-07-27_00h53.58.752,glasses,2021.1.4,MacIntel,60.0024001,1,x,1.9956,0,24,24,13,1,glasses1,10,8,,,,,,,,,,,
,,,,,,,,4,60ff5c2a4d3f0403c633be35,2021-07-27_00h53.58.752,glasses,2021.1.4,MacIntel,60.0024001,1,period,2.4315,0,25,25,18,1,glasses2,0,2,,,,,,,,,,,
,,,,,,,,4,60ff5c2a4d3f0403c633be35,2021-07-27_00h53.58.752,glasses,2021.1.4,MacIntel,60.0024001,1,period,1.5881,0,26,26,9,1,glasses1,2,0,,,,,,,,,,,
,,,,,,,,4,60ff5c2a4d3f0403c633be35,2021-07-27_00h53.58.752,glasses,2021.1.4,MacIntel,60.0024001,1,period,1.6201,0,27,27,24,1,glasses2,3,5,,,,,,,,,,,
,,,,,,,,4,60ff5c2a4d3f0403c633be35,2021-07-27_00h53.58.752,glasses,2021.1.4,MacIntel,60.0024001,1,x,1.9253,0,28,28,32,1,glasses2,3,1,,,,,,,,,,,
,,,,,,,,4,60ff5c2a4d3f0403c633be35,2021-07-27_00h53.58.752,glasses,2021.1.4,MacIntel,60.0024001,1,period,1.101,0,29,29,14,1,glasses1,3,1,,,,,,,,,,,
,,,,,,,,4,60ff5c2a4d3f0403c633be35,2021-07-27_00h53.58.752,glasses,2021.1.4,MacIntel,60.0024001,1,period,1.505,0,30,30,15,1,glasses1,5,3,,,,,,,,,,,
,,,,,,,,4,60ff5c2a4d3f0403c633be35,2021-07-27_00h53.58.752,glasses,2021.1.4,MacIntel,60.0024001,1,period,1.5301,0,31,31,11,1,glasses1,6,4,,,,,,,,,,,
,,,,,,,,4,60ff5c2a4d3f0403c633be35,2021-07-27_00h53.58.752,glasses,2021.1.4,MacIntel,60.0024001,1,x,1.4005,0,32,32,27,1,glasses2,2,0,,,,,,,,,,,
,,,,,,,,4,60ff5c2a4d3f0403c633be35,2021-07-27_00h53.58.752,glasses,2021.1.4,MacIntel,60.0024001,1,x,2.1776,0,33,33,7,1,glasses1,5,7,,,,,,,,,,,
,,,,,,,,4,60ff5c2a4d3f0403c633be35,2021-07-27_00h53.58.752,glasses,2021.1.4,MacIntel,60.0024001,1,x,1.7579,0,34,34,3,1,glasses1,6,8,,,,,,,,,,,
,,,,,,,,4,60ff5c2a4d3f0403c633be35,2021-07-27_00h53.58.752,glasses,2021.1.4,MacIntel,60.0024001,1,x,1.0629,0,35,35,2,1,glasses1,4,6,,,,,,,,,,,
,,,,,,,,4,60ff5c2a4d3f0403c633be35,2021-07-27_00h53.58.752,glasses,2021.1.4,MacIntel,60.0024001,1,,,,,,,,,,,round_square_001.png,x,1.7875,0,0,0,0,1,,,
,,,,,,,,4,60ff5c2a4d3f0403c633be35,2021-07-27_00h53.58.752,glasses,2021.1.4,MacIntel,60.0024001,1,,,,,,,,,,,round_square_091.png,period,2.0877,1,0,1,0,1,,,
,,,,,,,,4,60ff5c2a4d3f0403c633be35,2021-07-27_00h53.58.752,glasses,2021.1.4,MacIntel,60.0024001,1,,,,,,,,,,,round_square_081.png,period,1.2884,2,0,2,0,1,,,
,,,,,,,,4,60ff5c2a4d3f0403c633be35,2021-07-27_00h53.58.752,glasses,2021.1.4,MacIntel,60.0024001,1,,,,,,,,,,,round_square_031.png,x,1.291,3,0,3,0,1,,,
,,,,,,,,4,60ff5c2a4d3f0403c633be35,2021-07-27_00h53.58.752,glasses,2021.1.4,MacIntel,60.0024001,1,,,,,,,,,,,round_square_061.png,period,1.4532,4,0,4,0,1,,,
,,,,,,,,4,60ff5c2a4d3f0403c633be35,2021-07-27_00h53.58.752,glasses,2021.1.4,MacIntel,60.0024001,1,,,,,,,,,,,round_square_011.png,x,1.3207,5,0,5,0,1,,,
,,,,,,,,4,60ff5c2a4d3f0403c633be35,2021-07-27_00h53.58.752,glasses,2021.1.4,MacIntel,60.0024001,1,,,,,,,,,,,round_square_081.png,period,1.0819,6,0,6,0,1,,,
,,,,,,,,4,60ff5c2a4d3f0403c633be35,2021-07-27_00h53.58.752,glasses,2021.1.4,MacIntel,60.0024001,1,,,,,,,,,,,round_square_031.png,x,1.7364,7,0,7,0,1,,,
,,,,,,,,4,60ff5c2a4d3f0403c633be35,2021-07-27_00h53.58.752,glasses,2021.1.4,MacIntel,60.0024001,1,,,,,,,,,,,round_square_051.png,period,1.6181,8,0,8,0,1,,,
,,,,,,,,4,60ff5c2a4d3f0403c633be35,2021-07-27_00h53.58.752,glasses,2021.1.4,MacIntel,60.0024001,1,,,,,,,,,,,round_square_061.png,period,1.6729,9,0,9,0,1,,,
,,,,,,,,4,60ff5c2a4d3f0403c633be35,2021-07-27_00h53.58.752,glasses,2021.1.4,MacIntel,60.0024001,1,,,,,,,,,,,round_square_091.png,period,1.2795,10,0,10,0,1,,,
,,,,,,,,4,60ff5c2a4d3f0403c633be35,2021-07-27_00h53.58.752,glasses,2021.1.4,MacIntel,60.0024001,1,,,,,,,,,,,round_square_051.png,x,1.8086,11,0,11,0,1,,,
,,,,,,,,4,60ff5c2a4d3f0403c633be35,2021-07-27_00h53.58.752,glasses,2021.1.4,MacIntel,60.0024001,1,,,,,,,,,,,round_square_021.png,x,1.1665,12,0,12,0,1,,,
,,,,,,,,4,60ff5c2a4d3f0403c633be35,2021-07-27_00h53.58.752,glasses,2021.1.4,MacIntel,60.0024001,1,,,,,,,,,,,round_square_091.png,period,1.0377,13,0,13,0,1,,,
,,,,,,,,4,60ff5c2a4d3f0403c633be35,2021-07-27_00h53.58.752,glasses,2021.1.4,MacIntel,60.0024001,1,,,,,,,,,,,round_square_031.png,x,1.0869,14,0,14,0,1,,,
,,,,,,,,4,60ff5c2a4d3f0403c633be35,2021-07-27_00h53.58.752,glasses,2021.1.4,MacIntel,60.0024001,1,,,,,,,,,,,round_square_041.png,x,1.3855,15,0,15,0,1,,,
,,,,,,,,4,60ff5c2a4d3f0403c633be35,2021-07-27_00h53.58.752,glasses,2021.1.4,MacIntel,60.0024001,1,,,,,,,,,,,round_square_101.png,period,1.107,16,0,16,0,1,,,
,,,,,,,,4,60ff5c2a4d3f0403c633be35,2021-07-27_00h53.58.752,glasses,2021.1.4,MacIntel,60.0024001,1,,,,,,,,,,,round_square_071.png,period,1.4711,17,0,17,0,1,,,
,,,,,,,,4,60ff5c2a4d3f0403c633be35,2021-07-27_00h53.58.752,glasses,2021.1.4,MacIntel,60.0024001,1,,,,,,,,,,,round_square_001.png,x,1.0734,18,0,18,0,1,,,
,,,,,,,,4,60ff5c2a4d3f0403c633be35,2021-07-27_00h53.58.752,glasses,2021.1.4,MacIntel,60.0024001,1,,,,,,,,,,,round_square_061.png,period,1.3699,19,0,19,0,1,,,
,,,,,,,,4,60ff5c2a4d3f0403c633be35,2021-07-27_00h53.58.752,glasses,2021.1.4,MacIntel,60.0024001,1,,,,,,,,,,,round_square_101.png,period,1.2034,20,0,20,0,1,,,
,,,,,,,,4,60ff5c2a4d3f0403c633be35,2021-07-27_00h53.58.752,glasses,2021.1.4,MacIntel,60.0024001,1,,,,,,,,,,,round_square_001.png,x,1.0776,21,0,21,0,1,,,
,,,,,,,,4,60ff5c2a4d3f0403c633be35,2021-07-27_00h53.58.752,glasses,2021.1.4,MacIntel,60.0024001,1,,,,,,,,,,,round_square_061.png,period,1.4647,22,0,22,0,1,,,
,,,,,,,,4,60ff5c2a4d3f0403c633be35,2021-07-27_00h53.58.752,glasses,2021.1.4,MacIntel,60.0024001,1,,,,,,,,,,,round_square_021.png,x,1.0768,23,0,23,0,1,,,
,,,,,,,,4,60ff5c2a4d3f0403c633be35,2021-07-27_00h53.58.752,glasses,2021.1.4,MacIntel,60.0024001,1,,,,,,,,,,,round_square_051.png,period,1.2895,24,0,24,0,1,,,
,,,,,,,,4,60ff5c2a4d3f0403c633be35,2021-07-27_00h53.58.752,glasses,2021.1.4,MacIntel,60.0024001,1,,,,,,,,,,,round_square_001.png,x,1.0713,25,0,25,0,1,,,
,,,,,,,,4,60ff5c2a4d3f0403c633be35,2021-07-27_00h53.58.752,glasses,2021.1.4,MacIntel,60.0024001,1,,,,,,,,,,,round_square_081.png,period,1.2068,26,0,26,0,1,,,
,,,,,,,,4,60ff5c2a4d3f0403c633be35,2021-07-27_00h53.58.752,glasses,2021.1.4,MacIntel,60.0024001,1,,,,,,,,,,,round_square_071.png,period,1.5389,27,0,27,0,1,,,
,,,,,,,,4,60ff5c2a4d3f0403c633be35,2021-07-27_00h53.58.752,glasses,2021.1.4,MacIntel,60.0024001,1,,,,,,,,,,,round_square_021.png,x,1.0268,28,0,28,0,1,,,
,,,,,,,,4,60ff5c2a4d3f0403c633be35,2021-07-27_00h53.58.752,glasses,2021.1.4,MacIntel,60.0024001,1,,,,,,,,,,,round_square_071.png,period,1.0569,29,0,29,0,1,,,
,,,,,,,,4,60ff5c2a4d3f0403c633be35,2021-07-27_00h53.58.752,glasses,2021.1.4,MacIntel,60.0024001,1,,,,,,,,,,,round_square_011.png,x,1.0678,30,0,30,0,1,,,
,,,,,,,,4,60ff5c2a4d3f0403c633be35,2021-07-27_00h53.58.752,glasses,2021.1.4,MacIntel,60.0024001,1,,,,,,,,,,,round_square_001.png,x,1.5882,31,0,31,0,1,,,
,,,,,,,,4,60ff5c2a4d3f0403c633be35,2021-07-27_00h53.58.752,glasses,2021.1.4,MacIntel,60.0024001,1,,,,,,,,,,,round_square_051.png,x,1.5909,32,0,32,0,1,,,
,,,,,,,,4,60ff5c2a4d3f0403c633be35,2021-07-27_00h53.58.752,glasses,2021.1.4,MacIntel,60.0024001,1,,,,,,,,,,,round_square_071.png,period,1.0164,33,0,33,0,1,,,
,,,,,,,,4,60ff5c2a4d3f0403c633be35,2021-07-27_00h53.58.752,glasses,2021.1.4,MacIntel,60.0024001,1,,,,,,,,,,,round_square_041.png,x,1.3213,34,0,34,0,1,,,
,,,,,,,,4,60ff5c2a4d3f0403c633be35,2021-07-27_00h53.58.752,glasses,2021.1.4,MacIntel,60.0024001,1,,,,,,,,,,,round_square_021.png,x,0.9635,35,0,35,0,1,,,
,,,,,,,,4,60ff5c2a4d3f0403c633be35,2021-07-27_00h53.58.752,glasses,2021.1.4,MacIntel,60.0024001,1,,,,,,,,,,,round_square_031.png,x,1.0919,36,0,36,0,1,,,
,,,,,,,,4,60ff5c2a4d3f0403c633be35,2021-07-27_00h53.58.752,glasses,2021.1.4,MacIntel,60.0024001,1,,,,,,,,,,,round_square_091.png,period,0.9904,37,0,37,0,1,,,
,,,,,,,,4,60ff5c2a4d3f0403c633be35,2021-07-27_00h53.58.752,glasses,2021.1.4,MacIntel,60.0024001,1,,,,,,,,,,,round_square_081.png,period,1.0031,38,0,38,0,1,,,
,,,,,,,,4,60ff5c2a4d3f0403c633be35,2021-07-27_00h53.58.752,glasses,2021.1.4,MacIntel,60.0024001,1,,,,,,,,,,,round_square_041.png,x,1.1603,39,0,39,0,1,,,
,,,,,,,,4,60ff5c2a4d3f0403c633be35,2021-07-27_00h53.58.752,glasses,2021.1.4,MacIntel,60.0024001,1,,,,,,,,,,,round_square_101.png,period,1.0829,40,0,40,0,1,,,
,,,,,,,,4,60ff5c2a4d3f0403c633be35,2021-07-27_00h53.58.752,glasses,2021.1.4,MacIntel,60.0024001,1,,,,,,,,,,,round_square_031.png,period,1.2839,41,0,41,0,1,,,
,,,,,,,,4,60ff5c2a4d3f0403c633be35,2021-07-27_00h53.58.752,glasses,2021.1.4,MacIntel,60.0024001,1,,,,,,,,,,,round_square_031.png,period,1.5033,42,0,42,0,1,,,
,,,,,,,,4,60ff5c2a4d3f0403c633be35,2021-07-27_00h53.58.752,glasses,2021.1.4,MacIntel,60.0024001,1,,,,,,,,,,,round_square_051.png,period,1.1717,43,0,43,0,1,,,
,,,,,,,,4,60ff5c2a4d3f0403c633be35,2021-07-27_00h53.58.752,glasses,2021.1.4,MacIntel,60.0024001,1,,,,,,,,,,,round_square_041.png,period,1.8307,44,0,44,0,1,,,
,,,,,,,,4,60ff5c2a4d3f0403c633be35,2021-07-27_00h53.58.752,glasses,2021.1.4,MacIntel,60.0024001,1,,,,,,,,,,,round_square_041.png,x,2.4817,45,0,45,0,1,,,
,,,,,,,,4,60ff5c2a4d3f0403c633be35,2021-07-27_00h53.58.752,glasses,2021.1.4,MacIntel,60.0024001,1,,,,,,,,,,,round_square_051.png,x,3.0722,46,0,46,0,1,,,
,,,,,,,,4,60ff5c2a4d3f0403c633be35,2021-07-27_00h53.58.752,glasses,2021.1.4,MacIntel,60.0024001,1,,,,,,,,,,,round_square_011.png,x,1.1034,47,0,47,0,1,,,
,,,,,,,,4,60ff5c2a4d3f0403c633be35,2021-07-27_00h53.58.752,glasses,2021.1.4,MacIntel,60.0024001,1,,,,,,,,,,,round_square_021.png,x,1.2543,48,0,48,0,1,,,
,,,,,,,,4,60ff5c2a4d3f0403c633be35,2021-07-27_00h53.58.752,glasses,2021.1.4,MacIntel,60.0024001,1,,,,,,,,,,,round_square_021.png,x,1.4514,49,0,49,0,1,,,
,,,,,,,,4,60ff5c2a4d3f0403c633be35,2021-07-27_00h53.58.752,glasses,2021.1.4,MacIntel,60.0024001,1,,,,,,,,,,,round_square_081.png,period,1.0218,50,0,50,0,1,,,
,,,,,,,,4,60ff5c2a4d3f0403c633be35,2021-07-27_00h53.58.752,glasses,2021.1.4,MacIntel,60.0024001,1,,,,,,,,,,,round_square_081.png,period,1.0531,51,0,51,0,1,,,
,,,,,,,,4,60ff5c2a4d3f0403c633be35,2021-07-27_00h53.58.752,glasses,2021.1.4,MacIntel,60.0024001,1,,,,,,,,,,,round_square_061.png,period,1.0746,52,0,52,0,1,,,
,,,,,,,,4,60ff5c2a4d3f0403c633be35,2021-07-27_00h53.58.752,glasses,2021.1.4,MacIntel,60.0024001,1,,,,,,,,,,,round_square_051.png,period,2.8469,53,0,53,0,1,,,
,,,,,,,,4,60ff5c2a4d3f0403c633be35,2021-07-27_00h53.58.752,glasses,2021.1.4,MacIntel,60.0024001,1,,,,,,,,,,,round_square_071.png,period,1.3068,54,0,54,0,1,,,
,,,,,,,,4,60ff5c2a4d3f0403c633be35,2021-07-27_00h53.58.752,glasses,2021.1.4,MacIntel,60.0024001,1,,,,,,,,,,,round_square_101.png,period,1.0209,55,0,55,0,1,,,
,,,,,,,,4,60ff5c2a4d3f0403c633be35,2021-07-27_00h53.58.752,glasses,2021.1.4,MacIntel,60.0024001,1,,,,,,,,,,,round_square_031.png,x,1.024,56,0,56,0,1,,,
,,,,,,,,4,60ff5c2a4d3f0403c633be35,2021-07-27_00h53.58.752,glasses,2021.1.4,MacIntel,60.0024001,1,,,,,,,,,,,round_square_101.png,period,1.1064,57,0,57,0,1,,,
,,,,,,,,4,60ff5c2a4d3f0403c633be35,2021-07-27_00h53.58.752,glasses,2021.1.4,MacIntel,60.0024001,1,,,,,,,,,,,round_square_071.png,period,1.0596,58,0,58,0,1,,,
,,,,,,,,4,60ff5c2a4d3f0403c633be35,2021-07-27_00h53.58.752,glasses,2021.1.4,MacIntel,60.0024001,1,,,,,,,,,,,round_square_061.png,period,1.4598,59,0,59,0,1,,,
,,,,,,,,4,60ff5c2a4d3f0403c633be35,2021-07-27_00h53.58.752,glasses,2021.1.4,MacIntel,60.0024001,1,,,,,,,,,,,round_square_001.png,x,1.0181,60,0,60,0,1,,,
,,,,,,,,4,60ff5c2a4d3f0403c633be35,2021-07-27_00h53.58.752,glasses,2021.1.4,MacIntel,60.0024001,1,,,,,,,,,,,round_square_021.png,x,1.1141,61,0,61,0,1,,,
,,,,,,,,4,60ff5c2a4d3f0403c633be35,2021-07-27_00h53.58.752,glasses,2021.1.4,MacIntel,60.0024001,1,,,,,,,,,,,round_square_041.png,x,1.3692,62,0,62,0,1,,,
,,,,,,,,4,60ff5c2a4d3f0403c633be35,2021-07-27_00h53.58.752,glasses,2021.1.4,MacIntel,60.0024001,1,,,,,,,,,,,round_square_081.png,period,1.2257,63,0,63,0,1,,,
,,,,,,,,4,60ff5c2a4d3f0403c633be35,2021-07-27_00h53.58.752,glasses,2021.1.4,MacIntel,60.0024001,1,,,,,,,,,,,round_square_101.png,period,1.0253,64,0,64,0,1,,,
,,,,,,,,4,60ff5c2a4d3f0403c633be35,2021-07-27_00h53.58.752,glasses,2021.1.4,MacIntel,60.0024001,1,,,,,,,,,,,round_square_101.png,period,1.2066,65,0,65,0,1,,,
,,,,,,,,4,60ff5c2a4d3f0403c633be35,2021-07-27_00h53.58.752,glasses,2021.1.4,MacIntel,60.0024001,1,,,,,,,,,,,round_square_011.png,x,0.992,66,0,66,0,1,,,
,,,,,,,,4,60ff5c2a4d3f0403c633be35,2021-07-27_00h53.58.752,glasses,2021.1.4,MacIntel,60.0024001,1,,,,,,,,,,,round_square_061.png,period,1.0376,67,0,67,0,1,,,
,,,,,,,,4,60ff5c2a4d3f0403c633be35,2021-07-27_00h53.58.752,glasses,2021.1.4,MacIntel,60.0024001,1,,,,,,,,,,,round_square_101.png,period,1.0735,68,0,68,0,1,,,
,,,,,,,,4,60ff5c2a4d3f0403c633be35,2021-07-27_00h53.58.752,glasses,2021.1.4,MacIntel,60.0024001,1,,,,,,,,,,,round_square_041.png,x,1.0465,69,0,69,0,1,,,
,,,,,,,,4,60ff5c2a4d3f0403c633be35,2021-07-27_00h53.58.752,glasses,2021.1.4,MacIntel,60.0024001,1,,,,,,,,,,,round_square_061.png,period,1.6047,70,0,70,0,1,,,
,,,,,,,,4,60ff5c2a4d3f0403c633be35,2021-07-27_00h53.58.752,glasses,2021.1.4,MacIntel,60.0024001,1,,,,,,,,,,,round_square_071.png,period,1.0253,71,0,71,0,1,,,
,,,,,,,,4,60ff5c2a4d3f0403c633be35,2021-07-27_00h53.58.752,glasses,2021.1.4,MacIntel,60.0024001,1,,,,,,,,,,,round_square_091.png,period,1.099,72,0,72,0,1,,,
,,,,,,,,4,60ff5c2a4d3f0403c633be35,2021-07-27_00h53.58.752,glasses,2021.1.4,MacIntel,60.0024001,1,,,,,,,,,,,round_square_081.png,period,1.2738,73,0,73,0,1,,,
,,,,,,,,4,60ff5c2a4d3f0403c633be35,2021-07-27_00h53.58.752,glasses,2021.1.4,MacIntel,60.0024001,1,,,,,,,,,,,round_square_001.png,x,1.0523,74,0,74,0,1,,,
,,,,,,,,4,60ff5c2a4d3f0403c633be35,2021-07-27_00h53.58.752,glasses,2021.1.4,MacIntel,60.0024001,1,,,,,,,,,,,round_square_091.png,period,1.0402,75,0,75,0,1,,,
,,,,,,,,4,60ff5c2a4d3f0403c633be35,2021-07-27_00h53.58.752,glasses,2021.1.4,MacIntel,60.0024001,1,,,,,,,,,,,round_square_011.png,x,0.8857,76,0,76,0,1,,,
,,,,,,,,4,60ff5c2a4d3f0403c633be35,2021-07-27_00h53.58.752,glasses,2021.1.4,MacIntel,60.0024001,1,,,,,,,,,,,round_square_041.png,x,0.8051,77,0,77,0,1,,,
,,,,,,,,4,60ff5c2a4d3f0403c633be35,2021-07-27_00h53.58.752,glasses,2021.1.4,MacIntel,60.0024001,1,,,,,,,,,,,round_square_091.png,period,1.0527,78,0,78,0,1,,,
,,,,,,,,4,60ff5c2a4d3f0403c633be35,2021-07-27_00h53.58.752,glasses,2021.1.4,MacIntel,60.0024001,1,,,,,,,,,,,round_square_011.png,x,0.7051,79,0,79,0,1,,,
,,,,,,,,4,60ff5c2a4d3f0403c633be35,2021-07-27_00h53.58.752,glasses,2021.1.4,MacIntel,60.0024001,1,,,,,,,,,,,round_square_031.png,x,0.636,80,0,80,0,1,,,
,,,,,,,,4,60ff5c2a4d3f0403c633be35,2021-07-27_00h53.58.752,glasses,2021.1.4,MacIntel,60.0024001,1,,,,,,,,,,,round_square_021.png,x,0.8245,81,0,81,0,1,,,
,,,,,,,,4,60ff5c2a4d3f0403c633be35,2021-07-27_00h53.58.752,glasses,2021.1.4,MacIntel,60.0024001,1,,,,,,,,,,,round_square_071.png,period,1.1435,82,0,82,0,1,,,
,,,,,,,,4,60ff5c2a4d3f0403c633be35,2021-07-27_00h53.58.752,glasses,2021.1.4,MacIntel,60.0024001,1,,,,,,,,,,,round_square_011.png,x,1.2272,83,0,83,0,1,,,
,,,,,,,,4,60ff5c2a4d3f0403c633be35,2021-07-27_00h53.58.752,glasses,2021.1.4,MacIntel,60.0024001,1,,,,,,,,,,,round_square_001.png,x,1.0357,84,0,84,0,1,,,
,,,,,,,,4,60ff5c2a4d3f0403c633be35,2021-07-27_00h53.58.752,glasses,2021.1.4,MacIntel,60.0024001,1,,,,,,,,,,,round_square_091.png,period,1.0345,85,0,85,0,1,,,
,,,,,,,,4,60ff5c2a4d3f0403c633be35,2021-07-27_00h53.58.752,glasses,2021.1.4,MacIntel,60.0024001,1,,,,,,,,,,,round_square_011.png,x,1.1205,86,0,86,0,1,,,
,,,,,,,,4,60ff5c2a4d3f0403c633be35,2021-07-27_00h53.58.752,glasses,2021.1.4,MacIntel,60.0024001,1,,,,,,,,,,,round_square_051.png,period,1.5002,87,0,87,0,1,,,
,,,,,,,,4,60ff5c2a4d3f0403c633be35,2021-07-27_00h53.58.752,glasses,2021.1.4,MacIntel,60.0024001,1,,,,,,,,,,,,,,,,,,,correct,period,16.9739
