condition,glasses1,glasses2,begin_loop.thisRepN,begin_loop.thisTrialN,begin_loop.thisN,begin_loop.thisIndex,begin_loop.ran,participant,PROLIFIC_ID*,date,expName,psychopyVersion,OS,frameRate,session,similarity_resp.keys,similarity_resp.rt,bl_loop.thisRepN,bl_loop.thisTrialN,bl_loop.thisN,bl_loop.thisIndex,bl_loop.ran,ask_glasses,glasses_left_num,glasses_right_num,classification_glasses,class_resp.keys,class_resp.rt,class_loop.thisRepN,class_loop.thisTrialN,class_loop.thisN,class_loop.thisIndex,class_loop.ran,manipulation_check,key_resp_3.keys,key_resp_3.rt
face_inverted_glasses,geometric_rectangle_001.png,geometric_rectangle_101.png,0,0,0,0,1,50,60ff4422ea3fd36cefdec2bb,2021-07-26_22h17.30.045,glasses,2021.1.4,MacIntel,58.82352941,1,,,,,,,,,,,,,,,,,,,,,
,,,,,,,,50,60ff4422ea3fd36cefdec2bb,2021-07-26_22h17.30.045,glasses,2021.1.4,MacIntel,58.82352941,1,period,6.662,0,0,0,26,1,glasses2,7,9,,,,,,,,,,,
,,,,,,,,50,60ff4422ea3fd36cefdec2bb,2021-07-26_22h17.30.045,glasses,2021.1.4,MacIntel,58.82352941,1,x,3.367,0,1,1,5,1,glasses1,1,3,,,,,,,,,,,
,,,,,,,,50,60ff4422ea3fd36cefdec2bb,2021-07-26_22h17.30.045,glasses,2021.1.4,MacIntel,58.82352941,1,x,3.238,0,2,2,0,1,glasses1,0,2,,,,,,,,,,,
,,,,,,,,50,60ff4422ea3fd36cefdec2bb,2021-07-26_22h17.30.045,glasses,2021.1.4,MacIntel,58.82352941,1,x,2.387,0,3,3,35,1,glasses2,9,7,,,,,,,,,,,
,,,,,,,,50,60ff4422ea3fd36cefdec2bb,2021-07-26_22h17.30.045,glasses,2021.1.4,MacIntel,58.82352941,1,period,2.622,0,4,4,23,1,glasses2,1,3,,,,,,,,,,,
,,,,,,,,50,60ff4422ea3fd36cefdec2bb,2021-07-26_22h17.30.045,glasses,2021.1.4,MacIntel,58.82352941,1,period,2.98,0,5,5,17,1,glasses1,9,7,,,,,,,,,,,
,,,,,,,,50,60ff4422ea3fd36cefdec2bb,2021-07-26_22h17.30.045,glasses,2021.1.4,MacIntel,58.82352941,1,period,2.157,0,6,6,25,1,glasses2,5,7,,,,,,,,,,,
,,,,,,,,50,60ff4422ea3fd36cefdec2bb,2021-07-26_22h17.30.045,glasses,2021.1.4,MacIntel,58.82352941,1,x,2.88,0,7,7,3,1,glasses1,6,8,,,,,,,,,,,
,,,,,,,,50,60ff4422ea3fd36cefdec2bb,2021-07-26_22h17.30.045,glasses,2021.1.4,MacIntel,58.82352941,1,x,2.106,0,8,8,4,1,glasses1,8,10,,,,,,,,,,,
,,,,,,,,50,60ff4422ea3fd36cefdec2bb,2021-07-26_22h17.30.045,glasses,2021.1.4,MacIntel,58.82352941,1,x,1.971,0,9,9,29,1,glasses2,6,4,,,,,,,,,,,
,,,,,,,,50,60ff4422ea3fd36cefdec2bb,2021-07-26_22h17.30.045,glasses,2021.1.4,MacIntel,58.82352941,1,period,2.278,0,10,10,9,1,glasses1,2,0,,,,,,,,,,,
,,,,,,,,50,60ff4422ea3fd36cefdec2bb,2021-07-26_22h17.30.045,glasses,2021.1.4,MacIntel,58.82352941,1,period,1.937,0,11,11,11,1,glasses1,6,4,,,,,,,,,,,
,,,,,,,,50,60ff4422ea3fd36cefdec2bb,2021-07-26_22h17.30.045,glasses,2021.1.4,MacIntel,58.82352941,1,x,1.86,0,12,12,30,1,glasses2,8,6,,,,,,,,,,,
,,,,,,,,50,60ff4422ea3fd36cefdec2bb,2021-07-26_22h17.30.045,glasses,2021.1.4,MacIntel,58.82352941,1,x,1.823,0,13,13,6,1,glasses1,3,5,,,,,,,,,,,
,,,,,,,,50,60ff4422ea3fd36cefdec2bb,2021-07-26_22h17.30.045,glasses,2021.1.4,MacIntel,58.82352941,1,period,2.13,0,14,14,14,1,glasses1,3,1,,,,,,,,,,,
,,,,,,,,50,60ff4422ea3fd36cefdec2bb,2021-07-26_22h17.30.045,glasses,2021.1.4,MacIntel,58.82352941,1,x,2.076,0,15,15,31,1,glasses2,10,8,,,,,,,,,,,
,,,,,,,,50,60ff4422ea3fd36cefdec2bb,2021-07-26_22h17.30.045,glasses,2021.1.4,MacIntel,58.82352941,1,period,2.339,0,16,16,24,1,glasses2,3,5,,,,,,,,,,,
,,,,,,,,50,60ff4422ea3fd36cefdec2bb,2021-07-26_22h17.30.045,glasses,2021.1.4,MacIntel,58.82352941,1,x,3.46,0,17,17,28,1,glasses2,4,2,,,,,,,,,,,
,,,,,,,,50,60ff4422ea3fd36cefdec2bb,2021-07-26_22h17.30.045,glasses,2021.1.4,MacIntel,58.82352941,1,period,2.125,0,18,18,19,1,glasses2,2,4,,,,,,,,,,,
,,,,,,,,50,60ff4422ea3fd36cefdec2bb,2021-07-26_22h17.30.045,glasses,2021.1.4,MacIntel,58.82352941,1,x,2.757,0,19,19,34,1,glasses2,7,5,,,,,,,,,,,
,,,,,,,,50,60ff4422ea3fd36cefdec2bb,2021-07-26_22h17.30.045,glasses,2021.1.4,MacIntel,58.82352941,1,x,2.022,0,20,20,32,1,glasses2,3,1,,,,,,,,,,,
,,,,,,,,50,60ff4422ea3fd36cefdec2bb,2021-07-26_22h17.30.045,glasses,2021.1.4,MacIntel,58.82352941,1,x,1.907,0,21,21,1,1,glasses1,2,4,,,,,,,,,,,
,,,,,,,,50,60ff4422ea3fd36cefdec2bb,2021-07-26_22h17.30.045,glasses,2021.1.4,MacIntel,58.82352941,1,x,2.273,0,22,22,2,1,glasses1,4,6,,,,,,,,,,,
,,,,,,,,50,60ff4422ea3fd36cefdec2bb,2021-07-26_22h17.30.045,glasses,2021.1.4,MacIntel,58.82352941,1,period,2.277,0,23,23,13,1,glasses1,10,8,,,,,,,,,,,
,,,,,,,,50,60ff4422ea3fd36cefdec2bb,2021-07-26_22h17.30.045,glasses,2021.1.4,MacIntel,58.82352941,1,period,2.26,0,24,24,10,1,glasses1,4,2,,,,,,,,,,,
,,,,,,,,50,60ff4422ea3fd36cefdec2bb,2021-07-26_22h17.30.045,glasses,2021.1.4,MacIntel,58.82352941,1,x,2.143,0,25,25,8,1,glasses1,7,9,,,,,,,,,,,
,,,,,,,,50,60ff4422ea3fd36cefdec2bb,2021-07-26_22h17.30.045,glasses,2021.1.4,MacIntel,58.82352941,1,x,1.86,0,26,26,7,1,glasses1,5,7,,,,,,,,,,,
,,,,,,,,50,60ff4422ea3fd36cefdec2bb,2021-07-26_22h17.30.045,glasses,2021.1.4,MacIntel,58.82352941,1,period,2.162,0,27,27,12,1,glasses1,8,6,,,,,,,,,,,
,,,,,,,,50,60ff4422ea3fd36cefdec2bb,2021-07-26_22h17.30.045,glasses,2021.1.4,MacIntel,58.82352941,1,period,2.841,0,28,28,18,1,glasses2,0,2,,,,,,,,,,,
,,,,,,,,50,60ff4422ea3fd36cefdec2bb,2021-07-26_22h17.30.045,glasses,2021.1.4,MacIntel,58.82352941,1,x,2.109,0,29,29,22,1,glasses2,8,10,,,,,,,,,,,
,,,,,,,,50,60ff4422ea3fd36cefdec2bb,2021-07-26_22h17.30.045,glasses,2021.1.4,MacIntel,58.82352941,1,period,2.889,0,30,30,21,1,glasses2,6,8,,,,,,,,,,,
,,,,,,,,50,60ff4422ea3fd36cefdec2bb,2021-07-26_22h17.30.045,glasses,2021.1.4,MacIntel,58.82352941,1,x,1.938,0,31,31,33,1,glasses2,5,3,,,,,,,,,,,
,,,,,,,,50,60ff4422ea3fd36cefdec2bb,2021-07-26_22h17.30.045,glasses,2021.1.4,MacIntel,58.82352941,1,period,2.494,0,32,32,20,1,glasses2,4,6,,,,,,,,,,,
,,,,,,,,50,60ff4422ea3fd36cefdec2bb,2021-07-26_22h17.30.045,glasses,2021.1.4,MacIntel,58.82352941,1,period,2.329,0,33,33,15,1,glasses1,5,3,,,,,,,,,,,
,,,,,,,,50,60ff4422ea3fd36cefdec2bb,2021-07-26_22h17.30.045,glasses,2021.1.4,MacIntel,58.82352941,1,x,2.621,0,34,34,27,1,glasses2,2,0,,,,,,,,,,,
,,,,,,,,50,60ff4422ea3fd36cefdec2bb,2021-07-26_22h17.30.045,glasses,2021.1.4,MacIntel,58.82352941,1,x,2.361,0,35,35,16,1,glasses1,7,5,,,,,,,,,,,
,,,,,,,,50,60ff4422ea3fd36cefdec2bb,2021-07-26_22h17.30.045,glasses,2021.1.4,MacIntel,58.82352941,1,,,,,,,,,,,geometric_rectangle_101.png,period,8.175,0,0,0,0,1,,,
,,,,,,,,50,60ff4422ea3fd36cefdec2bb,2021-07-26_22h17.30.045,glasses,2021.1.4,MacIntel,58.82352941,1,,,,,,,,,,,geometric_rectangle_011.png,x,2.326,1,0,1,0,1,,,
,,,,,,,,50,60ff4422ea3fd36cefdec2bb,2021-07-26_22h17.30.045,glasses,2021.1.4,MacIntel,58.82352941,1,,,,,,,,,,,geometric_rectangle_041.png,x,5.434,2,0,2,0,1,,,
,,,,,,,,50,60ff4422ea3fd36cefdec2bb,2021-07-26_22h17.30.045,glasses,2021.1.4,MacIntel,58.82352941,1,,,,,,,,,,,geometric_rectangle_081.png,period,1.959,3,0,3,0,1,,,
,,,,,,,,50,60ff4422ea3fd36cefdec2bb,2021-07-26_22h17.30.045,glasses,2021.1.4,MacIntel,58.82352941,1,,,,,,,,,,,geometric_rectangle_071.png,period,2.195,4,0,4,0,1,,,
,,,,,,,,50,60ff4422ea3fd36cefdec2bb,2021-07-26_22h17.30.045,glasses,2021.1.4,MacIntel,58.82352941,1,,,,,,,,,,,geometric_rectangle_041.png,x,1.793,5,0,5,0,1,,,
,,,,,,,,50,60ff4422ea3fd36cefdec2bb,2021-07-26_22h17.30.045,glasses,2021.1.4,MacIntel,58.82352941,1,,,,,,,,,,,geometric_rectangle_091.png,period,1.612,6,0,6,0,1,,,
,,,,,,,,50,60ff4422ea3fd36cefdec2bb,2021-07-26_22h17.30.045,glasses,2021.1.4,MacIntel,58.82352941,1,,,,,,,,,,,geometric_rectangle_091.png,period,1.739,7,0,7,0,1,,,
,,,,,,,,50,60ff4422ea3fd36cefdec2bb,2021-07-26_22h17.30.045,glasses,2021.1.4,MacIntel,58.82352941,1,,,,,,,,,,,geometric_rectangle_041.png,x,2.012,8,0,8,0,1,,,
,,,,,,,,50,60ff4422ea3fd36cefdec2bb,2021-07-26_22h17.30.045,glasses,2021.1.4,MacIntel,58.82352941,1,,,,,,,,,,,geometric_rectangle_051.png,x,1.793,9,0,9,0,1,,,
,,,,,,,,50,60ff4422ea3fd36cefdec2bb,2021-07-26_22h17.30.045,glasses,2021.1.4,MacIntel,58.82352941,1,,,,,,,,,,,geometric_rectangle_091.png,period,1.343,10,0,10,0,1,,,
,,,,,,,,50,60ff4422ea3fd36cefdec2bb,2021-07-26_22h17.30.045,glasses,2021.1.4,MacIntel,58.82352941,1,,,,,,,,,,,geometric_rectangle_021.png,x,1.58,11,0,11,0,1,,,
,,,,,,,,50,60ff4422ea3fd36cefdec2bb,2021-07-26_22h17.30.045,glasses,2021.1.4,MacIntel,58.82352941,1,,,,,,,,,,,geometric_rectangle_081.png,period,0.842,12,0,12,0,1,,,
,,,,,,,,50,60ff4422ea3fd36cefdec2bb,2021-07-26_22h17.30.045,glasses,2021.1.4,MacIntel,58.82352941,1,,,,,,,,,,,geometric_rectangle_021.png,x,0.608,13,0,13,0,1,,,
,,,,,,,,50,60ff4422ea3fd36cefdec2bb,2021-07-26_22h17.30.045,glasses,2021.1.4,MacIntel,58.82352941,1,,,,,,,,,,,geometric_rectangle_001.png,x,1.181,14,0,14,0,1,,,
,,,,,,,,50,60ff4422ea3fd36cefdec2bb,2021-07-26_22h17.30.045,glasses,2021.1.4,MacIntel,58.82352941,1,,,,,,,,,,,geometric_rectangle_021.png,x,1.093,15,0,15,0,1,,,
,,,,,,,,50,60ff4422ea3fd36cefdec2bb,2021-07-26_22h17.30.045,glasses,2021.1.4,MacIntel,58.82352941,1,,,,,,,,,,,geometric_rectangle_031.png,x,0.625,16,0,16,0,1,,,
,,,,,,,,50,60ff4422ea3fd36cefdec2bb,2021-07-26_22h17.30.045,glasses,2021.1.4,MacIntel,58.82352941,1,,,,,,,,,,,geometric_rectangle_061.png,x,1.376,17,0,17,0,1,,,
,,,,,,,,50,60ff4422ea3fd36cefdec2bb,2021-07-26_22h17.30.045,glasses,2021.1.4,MacIntel,58.82352941,1,,,,,,,,,,,geometric_rectangle_001.png,x,1.211,18,0,18,0,1,,,
,,,,,,,,50,60ff4422ea3fd36cefdec2bb,2021-07-26_22h17.30.045,glasses,2021.1.4,MacIntel,58.82352941,1,,,,,,,,,,,geometric_rectangle_031.png,x,0.945,19,0,19,0,1,,,
,,,,,,,,50,60ff4422ea3fd36cefdec2bb,2021-07-26_22h17.30.045,glasses,2021.1.4,MacIntel,58.82352941,1,,,,,,,,,,,geometric_rectangle_051.png,x,1.027,20,0,20,0,1,,,
,,,,,,,,50,60ff4422ea3fd36cefdec2bb,2021-07-26_22h17.30.045,glasses,2021.1.4,MacIntel,58.82352941,1,,,,,,,,,,,geometric_rectangle_051.png,x,1.253,21,0,21,0,1,,,
,,,,,,,,50,60ff4422ea3fd36cefdec2bb,2021-07-26_22h17.30.045,glasses,2021.1.4,MacIntel,58.82352941,1,,,,,,,,,,,geometric_rectangle_101.png,period,1.148,22,0,22,0,1,,,
,,,,,,,,50,60ff4422ea3fd36cefdec2bb,2021-07-26_22h17.30.045,glasses,2021.1.4,MacIntel,58.82352941,1,,,,,,,,,,,geometric_rectangle_101.png,period,1.434,23,0,23,0,1,,,
,,,,,,,,50,60ff4422ea3fd36cefdec2bb,2021-07-26_22h17.30.045,glasses,2021.1.4,MacIntel,58.82352941,1,,,,,,,,,,,geometric_rectangle_041.png,x,1.326,24,0,24,0,1,,,
,,,,,,,,50,60ff4422ea3fd36cefdec2bb,2021-07-26_22h17.30.045,glasses,2021.1.4,MacIntel,58.82352941,1,,,,,,,,,,,geometric_rectangle_011.png,x,1.31,25,0,25,0,1,,,
,,,,,,,,50,60ff4422ea3fd36cefdec2bb,2021-07-26_22h17.30.045,glasses,2021.1.4,MacIntel,58.82352941,1,,,,,,,,,,,geometric_rectangle_001.png,x,1.415,26,0,26,0,1,,,
,,,,,,,,50,60ff4422ea3fd36cefdec2bb,2021-07-26_22h17.30.045,glasses,2021.1.4,MacIntel,58.82352941,1,,,,,,,,,,,geometric_rectangle_081.png,x,1.995,27,0,27,0,1,,,
,,,,,,,,50,60ff4422ea3fd36cefdec2bb,2021-07-26_22h17.30.045,glasses,2021.1.4,MacIntel,58.82352941,1,,,,,,,,,,,geometric_rectangle_041.png,x,1.194,28,0,28,0,1,,,
,,,,,,,,50,60ff4422ea3fd36cefdec2bb,2021-07-26_22h17.30.045,glasses,2021.1.4,MacIntel,58.82352941,1,,,,,,,,,,,geometric_rectangle_011.png,x,1.226,29,0,29,0,1,,,
,,,,,,,,50,60ff4422ea3fd36cefdec2bb,2021-07-26_22h17.30.045,glasses,2021.1.4,MacIntel,58.82352941,1,,,,,,,,,,,geometric_rectangle_081.png,period,1.095,30,0,30,0,1,,,
,,,,,,,,50,60ff4422ea3fd36cefdec2bb,2021-07-26_22h17.30.045,glasses,2021.1.4,MacIntel,58.82352941,1,,,,,,,,,,,geometric_rectangle_031.png,x,1.111,31,0,31,0,1,,,
,,,,,,,,50,60ff4422ea3fd36cefdec2bb,2021-07-26_22h17.30.045,glasses,2021.1.4,MacIntel,58.82352941,1,,,,,,,,,,,geometric_rectangle_071.png,period,1.41,32,0,32,0,1,,,
,,,,,,,,50,60ff4422ea3fd36cefdec2bb,2021-07-26_22h17.30.045,glasses,2021.1.4,MacIntel,58.82352941,1,,,,,,,,,,,geometric_rectangle_001.png,x,0.599,33,0,33,0,1,,,
,,,,,,,,50,60ff4422ea3fd36cefdec2bb,2021-07-26_22h17.30.045,glasses,2021.1.4,MacIntel,58.82352941,1,,,,,,,,,,,geometric_rectangle_061.png,x,1.409,34,0,34,0,1,,,
,,,,,,,,50,60ff4422ea3fd36cefdec2bb,2021-07-26_22h17.30.045,glasses,2021.1.4,MacIntel,58.82352941,1,,,,,,,,,,,geometric_rectangle_101.png,period,0.759,35,0,35,0,1,,,
,,,,,,,,50,60ff4422ea3fd36cefdec2bb,2021-07-26_22h17.30.045,glasses,2021.1.4,MacIntel,58.82352941,1,,,,,,,,,,,geometric_rectangle_011.png,x,0.859,36,0,36,0,1,,,
,,,,,,,,50,60ff4422ea3fd36cefdec2bb,2021-07-26_22h17.30.045,glasses,2021.1.4,MacIntel,58.82352941,1,,,,,,,,,,,geometric_rectangle_071.png,period,0.893,37,0,37,0,1,,,
,,,,,,,,50,60ff4422ea3fd36cefdec2bb,2021-07-26_22h17.30.045,glasses,2021.1.4,MacIntel,58.82352941,1,,,,,,,,,,,geometric_rectangle_101.png,period,0.693,38,0,38,0,1,,,
,,,,,,,,50,60ff4422ea3fd36cefdec2bb,2021-07-26_22h17.30.045,glasses,2021.1.4,MacIntel,58.82352941,1,,,,,,,,,,,geometric_rectangle_081.png,period,0.711,39,0,39,0,1,,,
,,,,,,,,50,60ff4422ea3fd36cefdec2bb,2021-07-26_22h17.30.045,glasses,2021.1.4,MacIntel,58.82352941,1,,,,,,,,,,,geometric_rectangle_021.png,x,1.378,40,0,40,0,1,,,
,,,,,,,,50,60ff4422ea3fd36cefdec2bb,2021-07-26_22h17.30.045,glasses,2021.1.4,MacIntel,58.82352941,1,,,,,,,,,,,geometric_rectangle_051.png,x,1.045,41,0,41,0,1,,,
,,,,,,,,50,60ff4422ea3fd36cefdec2bb,2021-07-26_22h17.30.045,glasses,2021.1.4,MacIntel,58.82352941,1,,,,,,,,,,,geometric_rectangle_031.png,x,0.596,42,0,42,0,1,,,
,,,,,,,,50,60ff4422ea3fd36cefdec2bb,2021-07-26_22h17.30.045,glasses,2021.1.4,MacIntel,58.82352941,1,,,,,,,,,,,geometric_rectangle_061.png,x,1.162,43,0,43,0,1,,,
,,,,,,,,50,60ff4422ea3fd36cefdec2bb,2021-07-26_22h17.30.045,glasses,2021.1.4,MacIntel,58.82352941,1,,,,,,,,,,,geometric_rectangle_041.png,x,1.114,44,0,44,0,1,,,
,,,,,,,,50,60ff4422ea3fd36cefdec2bb,2021-07-26_22h17.30.045,glasses,2021.1.4,MacIntel,58.82352941,1,,,,,,,,,,,geometric_rectangle_091.png,period,0.826,45,0,45,0,1,,,
,,,,,,,,50,60ff4422ea3fd36cefdec2bb,2021-07-26_22h17.30.045,glasses,2021.1.4,MacIntel,58.82352941,1,,,,,,,,,,,geometric_rectangle_031.png,x,0.758,46,0,46,0,1,,,
,,,,,,,,50,60ff4422ea3fd36cefdec2bb,2021-07-26_22h17.30.045,glasses,2021.1.4,MacIntel,58.82352941,1,,,,,,,,,,,geometric_rectangle_081.png,period,0.845,47,0,47,0,1,,,
,,,,,,,,50,60ff4422ea3fd36cefdec2bb,2021-07-26_22h17.30.045,glasses,2021.1.4,MacIntel,58.82352941,1,,,,,,,,,,,geometric_rectangle_091.png,period,0.808,48,0,48,0,1,,,
,,,,,,,,50,60ff4422ea3fd36cefdec2bb,2021-07-26_22h17.30.045,glasses,2021.1.4,MacIntel,58.82352941,1,,,,,,,,,,,geometric_rectangle_101.png,period,0.661,49,0,49,0,1,,,
,,,,,,,,50,60ff4422ea3fd36cefdec2bb,2021-07-26_22h17.30.045,glasses,2021.1.4,MacIntel,58.82352941,1,,,,,,,,,,,geometric_rectangle_041.png,x,1.231,50,0,50,0,1,,,
,,,,,,,,50,60ff4422ea3fd36cefdec2bb,2021-07-26_22h17.30.045,glasses,2021.1.4,MacIntel,58.82352941,1,,,,,,,,,,,geometric_rectangle_001.png,x,0.597,51,0,51,0,1,,,
,,,,,,,,50,60ff4422ea3fd36cefdec2bb,2021-07-26_22h17.30.045,glasses,2021.1.4,MacIntel,58.82352941,1,,,,,,,,,,,geometric_rectangle_051.png,x,2.833,52,0,52,0,1,,,
,,,,,,,,50,60ff4422ea3fd36cefdec2bb,2021-07-26_22h17.30.045,glasses,2021.1.4,MacIntel,58.82352941,1,,,,,,,,,,,geometric_rectangle_071.png,period,1.146,53,0,53,0,1,,,
,,,,,,,,50,60ff4422ea3fd36cefdec2bb,2021-07-26_22h17.30.045,glasses,2021.1.4,MacIntel,58.82352941,1,,,,,,,,,,,geometric_rectangle_091.png,period,1.096,54,0,54,0,1,,,
,,,,,,,,50,60ff4422ea3fd36cefdec2bb,2021-07-26_22h17.30.045,glasses,2021.1.4,MacIntel,58.82352941,1,,,,,,,,,,,geometric_rectangle_071.png,period,1.242,55,0,55,0,1,,,
,,,,,,,,50,60ff4422ea3fd36cefdec2bb,2021-07-26_22h17.30.045,glasses,2021.1.4,MacIntel,58.82352941,1,,,,,,,,,,,geometric_rectangle_021.png,x,1.124,56,0,56,0,1,,,
,,,,,,,,50,60ff4422ea3fd36cefdec2bb,2021-07-26_22h17.30.045,glasses,2021.1.4,MacIntel,58.82352941,1,,,,,,,,,,,geometric_rectangle_061.png,x,1.213,57,0,57,0,1,,,
,,,,,,,,50,60ff4422ea3fd36cefdec2bb,2021-07-26_22h17.30.045,glasses,2021.1.4,MacIntel,58.82352941,1,,,,,,,,,,,geometric_rectangle_001.png,x,1.261,58,0,58,0,1,,,
,,,,,,,,50,60ff4422ea3fd36cefdec2bb,2021-07-26_22h17.30.045,glasses,2021.1.4,MacIntel,58.82352941,1,,,,,,,,,,,geometric_rectangle_001.png,x,0.571,59,0,59,0,1,,,
,,,,,,,,50,60ff4422ea3fd36cefdec2bb,2021-07-26_22h17.30.045,glasses,2021.1.4,MacIntel,58.82352941,1,,,,,,,,,,,geometric_rectangle_051.png,x,1.059,60,0,60,0,1,,,
,,,,,,,,50,60ff4422ea3fd36cefdec2bb,2021-07-26_22h17.30.045,glasses,2021.1.4,MacIntel,58.82352941,1,,,,,,,,,,,geometric_rectangle_071.png,x,0.56,61,0,61,0,1,,,
,,,,,,,,50,60ff4422ea3fd36cefdec2bb,2021-07-26_22h17.30.045,glasses,2021.1.4,MacIntel,58.82352941,1,,,,,,,,,,,geometric_rectangle_021.png,x,0.659,62,0,62,0,1,,,
,,,,,,,,50,60ff4422ea3fd36cefdec2bb,2021-07-26_22h17.30.045,glasses,2021.1.4,MacIntel,58.82352941,1,,,,,,,,,,,geometric_rectangle_101.png,period,0.68,63,0,63,0,1,,,
,,,,,,,,50,60ff4422ea3fd36cefdec2bb,2021-07-26_22h17.30.045,glasses,2021.1.4,MacIntel,58.82352941,1,,,,,,,,,,,geometric_rectangle_091.png,period,0.709,64,0,64,0,1,,,
,,,,,,,,50,60ff4422ea3fd36cefdec2bb,2021-07-26_22h17.30.045,glasses,2021.1.4,MacIntel,58.82352941,1,,,,,,,,,,,geometric_rectangle_021.png,x,0.661,65,0,65,0,1,,,
,,,,,,,,50,60ff4422ea3fd36cefdec2bb,2021-07-26_22h17.30.045,glasses,2021.1.4,MacIntel,58.82352941,1,,,,,,,,,,,geometric_rectangle_101.png,period,0.793,66,0,66,0,1,,,
,,,,,,,,50,60ff4422ea3fd36cefdec2bb,2021-07-26_22h17.30.045,glasses,2021.1.4,MacIntel,58.82352941,1,,,,,,,,,,,geometric_rectangle_011.png,x,0.643,67,0,67,0,1,,,
,,,,,,,,50,60ff4422ea3fd36cefdec2bb,2021-07-26_22h17.30.045,glasses,2021.1.4,MacIntel,58.82352941,1,,,,,,,,,,,geometric_rectangle_031.png,x,1.21,68,0,68,0,1,,,
,,,,,,,,50,60ff4422ea3fd36cefdec2bb,2021-07-26_22h17.30.045,glasses,2021.1.4,MacIntel,58.82352941,1,,,,,,,,,,,geometric_rectangle_091.png,period,0.741,69,0,69,0,1,,,
,,,,,,,,50,60ff4422ea3fd36cefdec2bb,2021-07-26_22h17.30.045,glasses,2021.1.4,MacIntel,58.82352941,1,,,,,,,,,,,geometric_rectangle_011.png,x,0.729,70,0,70,0,1,,,
,,,,,,,,50,60ff4422ea3fd36cefdec2bb,2021-07-26_22h17.30.045,glasses,2021.1.4,MacIntel,58.82352941,1,,,,,,,,,,,geometric_rectangle_041.png,x,1.328,71,0,71,0,1,,,
,,,,,,,,50,60ff4422ea3fd36cefdec2bb,2021-07-26_22h17.30.045,glasses,2021.1.4,MacIntel,58.82352941,1,,,,,,,,,,,geometric_rectangle_061.png,period,1.218,72,0,72,0,1,,,
,,,,,,,,50,60ff4422ea3fd36cefdec2bb,2021-07-26_22h17.30.045,glasses,2021.1.4,MacIntel,58.82352941,1,,,,,,,,,,,geometric_rectangle_061.png,period,0.634,73,0,73,0,1,,,
,,,,,,,,50,60ff4422ea3fd36cefdec2bb,2021-07-26_22h17.30.045,glasses,2021.1.4,MacIntel,58.82352941,1,,,,,,,,,,,geometric_rectangle_001.png,x,0.559,74,0,74,0,1,,,
,,,,,,,,50,60ff4422ea3fd36cefdec2bb,2021-07-26_22h17.30.045,glasses,2021.1.4,MacIntel,58.82352941,1,,,,,,,,,,,geometric_rectangle_071.png,period,1.179,75,0,75,0,1,,,
,,,,,,,,50,60ff4422ea3fd36cefdec2bb,2021-07-26_22h17.30.045,glasses,2021.1.4,MacIntel,58.82352941,1,,,,,,,,,,,geometric_rectangle_061.png,period,0.664,76,0,76,0,1,,,
,,,,,,,,50,60ff4422ea3fd36cefdec2bb,2021-07-26_22h17.30.045,glasses,2021.1.4,MacIntel,58.82352941,1,,,,,,,,,,,geometric_rectangle_051.png,x,1.445,77,0,77,0,1,,,
,,,,,,,,50,60ff4422ea3fd36cefdec2bb,2021-07-26_22h17.30.045,glasses,2021.1.4,MacIntel,58.82352941,1,,,,,,,,,,,geometric_rectangle_021.png,x,0.558,78,0,78,0,1,,,
,,,,,,,,50,60ff4422ea3fd36cefdec2bb,2021-07-26_22h17.30.045,glasses,2021.1.4,MacIntel,58.82352941,1,,,,,,,,,,,geometric_rectangle_051.png,x,0.66,79,0,79,0,1,,,
,,,,,,,,50,60ff4422ea3fd36cefdec2bb,2021-07-26_22h17.30.045,glasses,2021.1.4,MacIntel,58.82352941,1,,,,,,,,,,,geometric_rectangle_031.png,x,0.643,80,0,80,0,1,,,
,,,,,,,,50,60ff4422ea3fd36cefdec2bb,2021-07-26_22h17.30.045,glasses,2021.1.4,MacIntel,58.82352941,1,,,,,,,,,,,geometric_rectangle_011.png,x,0.577,81,0,81,0,1,,,
,,,,,,,,50,60ff4422ea3fd36cefdec2bb,2021-07-26_22h17.30.045,glasses,2021.1.4,MacIntel,58.82352941,1,,,,,,,,,,,geometric_rectangle_031.png,x,0.71,82,0,82,0,1,,,
,,,,,,,,50,60ff4422ea3fd36cefdec2bb,2021-07-26_22h17.30.045,glasses,2021.1.4,MacIntel,58.82352941,1,,,,,,,,,,,geometric_rectangle_081.png,period,7.614,83,0,83,0,1,,,
,,,,,,,,50,60ff4422ea3fd36cefdec2bb,2021-07-26_22h17.30.045,glasses,2021.1.4,MacIntel,58.82352941,1,,,,,,,,,,,geometric_rectangle_011.png,x,1.131,84,0,84,0,1,,,
,,,,,,,,50,60ff4422ea3fd36cefdec2bb,2021-07-26_22h17.30.045,glasses,2021.1.4,MacIntel,58.82352941,1,,,,,,,,,,,geometric_rectangle_071.png,period,0.713,85,0,85,0,1,,,
,,,,,,,,50,60ff4422ea3fd36cefdec2bb,2021-07-26_22h17.30.045,glasses,2021.1.4,MacIntel,58.82352941,1,,,,,,,,,,,geometric_rectangle_061.png,period,1.162,86,0,86,0,1,,,
,,,,,,,,50,60ff4422ea3fd36cefdec2bb,2021-07-26_22h17.30.045,glasses,2021.1.4,MacIntel,58.82352941,1,,,,,,,,,,,geometric_rectangle_081.png,period,1.479,87,0,87,0,1,,,
,,,,,,,,50,60ff4422ea3fd36cefdec2bb,2021-07-26_22h17.30.045,glasses,2021.1.4,MacIntel,58.82352941,1,,,,,,,,,,,,,,,,,,,correct,x,12.444
