condition,glasses1,glasses2,begin_loop.thisRepN,begin_loop.thisTrialN,begin_loop.thisN,begin_loop.thisIndex,begin_loop.ran,participant,PROLIFIC_ID*,date,expName,psychopyVersion,OS,frameRate,session,similarity_resp.keys,similarity_resp.rt,bl_loop.thisRepN,bl_loop.thisTrialN,bl_loop.thisN,bl_loop.thisIndex,bl_loop.ran,ask_glasses,glasses_left_num,glasses_right_num,classification_glasses,class_resp.keys,class_resp.rt,class_loop.thisRepN,class_loop.thisTrialN,class_loop.thisN,class_loop.thisIndex,class_loop.ran,manipulation_check,key_resp_3.keys,key_resp_3.rt
upright_glasses,geometric_oval_001.png,geometric_oval_101.png,0,0,0,0,1,53,60fceac0ce36d6e4fb4cb429,2021-07-26_22h17.33.131,glasses,2021.1.4,MacIntel,58.82352941,1,,,,,,,,,,,,,,,,,,,,,
,,,,,,,,53,60fceac0ce36d6e4fb4cb429,2021-07-26_22h17.33.131,glasses,2021.1.4,MacIntel,58.82352941,1,period,4.495,0,0,0,34,1,glasses2,7,5,,,,,,,,,,,
,,,,,,,,53,60fceac0ce36d6e4fb4cb429,2021-07-26_22h17.33.131,glasses,2021.1.4,MacIntel,58.82352941,1,x,1.626,0,1,1,2,1,glasses1,4,6,,,,,,,,,,,
,,,,,,,,53,60fceac0ce36d6e4fb4cb429,2021-07-26_22h17.33.131,glasses,2021.1.4,MacIntel,58.82352941,1,period,1.107,0,2,2,12,1,glasses1,8,6,,,,,,,,,,,
,,,,,,,,53,60fceac0ce36d6e4fb4cb429,2021-07-26_22h17.33.131,glasses,2021.1.4,MacIntel,58.82352941,1,period,1.771,0,3,3,5,1,glasses1,1,3,,,,,,,,,,,
,,,,,,,,53,60fceac0ce36d6e4fb4cb429,2021-07-26_22h17.33.131,glasses,2021.1.4,MacIntel,58.82352941,1,period,1.687,0,4,4,18,1,glasses2,0,2,,,,,,,,,,,
,,,,,,,,53,60fceac0ce36d6e4fb4cb429,2021-07-26_22h17.33.131,glasses,2021.1.4,MacIntel,58.82352941,1,x,1.813,0,5,5,16,1,glasses1,7,5,,,,,,,,,,,
,,,,,,,,53,60fceac0ce36d6e4fb4cb429,2021-07-26_22h17.33.131,glasses,2021.1.4,MacIntel,58.82352941,1,period,1.496,0,6,6,19,1,glasses2,2,4,,,,,,,,,,,
,,,,,,,,53,60fceac0ce36d6e4fb4cb429,2021-07-26_22h17.33.131,glasses,2021.1.4,MacIntel,58.82352941,1,period,1.636,0,7,7,17,1,glasses1,9,7,,,,,,,,,,,
,,,,,,,,53,60fceac0ce36d6e4fb4cb429,2021-07-26_22h17.33.131,glasses,2021.1.4,MacIntel,58.82352941,1,x,1.714,0,8,8,10,1,glasses1,4,2,,,,,,,,,,,
,,,,,,,,53,60fceac0ce36d6e4fb4cb429,2021-07-26_22h17.33.131,glasses,2021.1.4,MacIntel,58.82352941,1,period,1.406,0,9,9,1,1,glasses1,2,4,,,,,,,,,,,
,,,,,,,,53,60fceac0ce36d6e4fb4cb429,2021-07-26_22h17.33.131,glasses,2021.1.4,MacIntel,58.82352941,1,x,1.447,0,10,10,27,1,glasses2,2,0,,,,,,,,,,,
,,,,,,,,53,60fceac0ce36d6e4fb4cb429,2021-07-26_22h17.33.131,glasses,2021.1.4,MacIntel,58.82352941,1,period,1.707,0,11,11,24,1,glasses2,3,5,,,,,,,,,,,
,,,,,,,,53,60fceac0ce36d6e4fb4cb429,2021-07-26_22h17.33.131,glasses,2021.1.4,MacIntel,58.82352941,1,period,2.131,0,12,12,13,1,glasses1,10,8,,,,,,,,,,,
,,,,,,,,53,60fceac0ce36d6e4fb4cb429,2021-07-26_22h17.33.131,glasses,2021.1.4,MacIntel,58.82352941,1,period,1.366,0,13,13,25,1,glasses2,5,7,,,,,,,,,,,
,,,,,,,,53,60fceac0ce36d6e4fb4cb429,2021-07-26_22h17.33.131,glasses,2021.1.4,MacIntel,58.82352941,1,x,1.516,0,14,14,4,1,glasses1,8,10,,,,,,,,,,,
,,,,,,,,53,60fceac0ce36d6e4fb4cb429,2021-07-26_22h17.33.131,glasses,2021.1.4,MacIntel,58.82352941,1,x,1.48,0,15,15,15,1,glasses1,5,3,,,,,,,,,,,
,,,,,,,,53,60fceac0ce36d6e4fb4cb429,2021-07-26_22h17.33.131,glasses,2021.1.4,MacIntel,58.82352941,1,x,1.965,0,16,16,11,1,glasses1,6,4,,,,,,,,,,,
,,,,,,,,53,60fceac0ce36d6e4fb4cb429,2021-07-26_22h17.33.131,glasses,2021.1.4,MacIntel,58.82352941,1,period,2.259,0,17,17,6,1,glasses1,3,5,,,,,,,,,,,
,,,,,,,,53,60fceac0ce36d6e4fb4cb429,2021-07-26_22h17.33.131,glasses,2021.1.4,MacIntel,58.82352941,1,period,1.371,0,18,18,31,1,glasses2,10,8,,,,,,,,,,,
,,,,,,,,53,60fceac0ce36d6e4fb4cb429,2021-07-26_22h17.33.131,glasses,2021.1.4,MacIntel,58.82352941,1,x,1.619,0,19,19,3,1,glasses1,6,8,,,,,,,,,,,
,,,,,,,,53,60fceac0ce36d6e4fb4cb429,2021-07-26_22h17.33.131,glasses,2021.1.4,MacIntel,58.82352941,1,x,1.342,0,20,20,9,1,glasses1,2,0,,,,,,,,,,,
,,,,,,,,53,60fceac0ce36d6e4fb4cb429,2021-07-26_22h17.33.131,glasses,2021.1.4,MacIntel,58.82352941,1,period,1.331,0,21,21,23,1,glasses2,1,3,,,,,,,,,,,
,,,,,,,,53,60fceac0ce36d6e4fb4cb429,2021-07-26_22h17.33.131,glasses,2021.1.4,MacIntel,58.82352941,1,x,1.399,0,22,22,26,1,glasses2,7,9,,,,,,,,,,,
,,,,,,,,53,60fceac0ce36d6e4fb4cb429,2021-07-26_22h17.33.131,glasses,2021.1.4,MacIntel,58.82352941,1,x,1.332,0,23,23,14,1,glasses1,3,1,,,,,,,,,,,
,,,,,,,,53,60fceac0ce36d6e4fb4cb429,2021-07-26_22h17.33.131,glasses,2021.1.4,MacIntel,58.82352941,1,period,1.716,0,24,24,20,1,glasses2,4,6,,,,,,,,,,,
,,,,,,,,53,60fceac0ce36d6e4fb4cb429,2021-07-26_22h17.33.131,glasses,2021.1.4,MacIntel,58.82352941,1,x,1.816,0,25,25,33,1,glasses2,5,3,,,,,,,,,,,
,,,,,,,,53,60fceac0ce36d6e4fb4cb429,2021-07-26_22h17.33.131,glasses,2021.1.4,MacIntel,58.82352941,1,x,1.673,0,26,26,7,1,glasses1,5,7,,,,,,,,,,,
,,,,,,,,53,60fceac0ce36d6e4fb4cb429,2021-07-26_22h17.33.131,glasses,2021.1.4,MacIntel,58.82352941,1,x,2.043,0,27,27,29,1,glasses2,6,4,,,,,,,,,,,
,,,,,,,,53,60fceac0ce36d6e4fb4cb429,2021-07-26_22h17.33.131,glasses,2021.1.4,MacIntel,58.82352941,1,x,1.489,0,28,28,21,1,glasses2,6,8,,,,,,,,,,,
,,,,,,,,53,60fceac0ce36d6e4fb4cb429,2021-07-26_22h17.33.131,glasses,2021.1.4,MacIntel,58.82352941,1,x,1.365,0,29,29,22,1,glasses2,8,10,,,,,,,,,,,
,,,,,,,,53,60fceac0ce36d6e4fb4cb429,2021-07-26_22h17.33.131,glasses,2021.1.4,MacIntel,58.82352941,1,x,1.431,0,30,30,28,1,glasses2,4,2,,,,,,,,,,,
,,,,,,,,53,60fceac0ce36d6e4fb4cb429,2021-07-26_22h17.33.131,glasses,2021.1.4,MacIntel,58.82352941,1,period,1.681,0,31,31,0,1,glasses1,0,2,,,,,,,,,,,
,,,,,,,,53,60fceac0ce36d6e4fb4cb429,2021-07-26_22h17.33.131,glasses,2021.1.4,MacIntel,58.82352941,1,period,1.874,0,32,32,30,1,glasses2,8,6,,,,,,,,,,,
,,,,,,,,53,60fceac0ce36d6e4fb4cb429,2021-07-26_22h17.33.131,glasses,2021.1.4,MacIntel,58.82352941,1,period,1.314,0,33,33,35,1,glasses2,9,7,,,,,,,,,,,
,,,,,,,,53,60fceac0ce36d6e4fb4cb429,2021-07-26_22h17.33.131,glasses,2021.1.4,MacIntel,58.82352941,1,x,1.289,0,34,34,32,1,glasses2,3,1,,,,,,,,,,,
,,,,,,,,53,60fceac0ce36d6e4fb4cb429,2021-07-26_22h17.33.131,glasses,2021.1.4,MacIntel,58.82352941,1,x,1.474,0,35,35,8,1,glasses1,7,9,,,,,,,,,,,
,,,,,,,,53,60fceac0ce36d6e4fb4cb429,2021-07-26_22h17.33.131,glasses,2021.1.4,MacIntel,58.82352941,1,,,,,,,,,,,geometric_oval_031.png,x,3.516,0,0,0,0,1,,,
,,,,,,,,53,60fceac0ce36d6e4fb4cb429,2021-07-26_22h17.33.131,glasses,2021.1.4,MacIntel,58.82352941,1,,,,,,,,,,,geometric_oval_041.png,x,2.473,1,0,1,0,1,,,
,,,,,,,,53,60fceac0ce36d6e4fb4cb429,2021-07-26_22h17.33.131,glasses,2021.1.4,MacIntel,58.82352941,1,,,,,,,,,,,geometric_oval_041.png,x,1.974,2,0,2,0,1,,,
,,,,,,,,53,60fceac0ce36d6e4fb4cb429,2021-07-26_22h17.33.131,glasses,2021.1.4,MacIntel,58.82352941,1,,,,,,,,,,,geometric_oval_071.png,period,1.092,3,0,3,0,1,,,
,,,,,,,,53,60fceac0ce36d6e4fb4cb429,2021-07-26_22h17.33.131,glasses,2021.1.4,MacIntel,58.82352941,1,,,,,,,,,,,geometric_oval_011.png,x,1.28,4,0,4,0,1,,,
,,,,,,,,53,60fceac0ce36d6e4fb4cb429,2021-07-26_22h17.33.131,glasses,2021.1.4,MacIntel,58.82352941,1,,,,,,,,,,,geometric_oval_071.png,period,1.067,5,0,5,0,1,,,
,,,,,,,,53,60fceac0ce36d6e4fb4cb429,2021-07-26_22h17.33.131,glasses,2021.1.4,MacIntel,58.82352941,1,,,,,,,,,,,geometric_oval_031.png,x,1.37,6,0,6,0,1,,,
,,,,,,,,53,60fceac0ce36d6e4fb4cb429,2021-07-26_22h17.33.131,glasses,2021.1.4,MacIntel,58.82352941,1,,,,,,,,,,,geometric_oval_021.png,x,1.194,7,0,7,0,1,,,
,,,,,,,,53,60fceac0ce36d6e4fb4cb429,2021-07-26_22h17.33.131,glasses,2021.1.4,MacIntel,58.82352941,1,,,,,,,,,,,geometric_oval_021.png,x,1.05,8,0,8,0,1,,,
,,,,,,,,53,60fceac0ce36d6e4fb4cb429,2021-07-26_22h17.33.131,glasses,2021.1.4,MacIntel,58.82352941,1,,,,,,,,,,,geometric_oval_061.png,period,1.019,9,0,9,0,1,,,
,,,,,,,,53,60fceac0ce36d6e4fb4cb429,2021-07-26_22h17.33.131,glasses,2021.1.4,MacIntel,58.82352941,1,,,,,,,,,,,geometric_oval_021.png,x,1.034,10,0,10,0,1,,,
,,,,,,,,53,60fceac0ce36d6e4fb4cb429,2021-07-26_22h17.33.131,glasses,2021.1.4,MacIntel,58.82352941,1,,,,,,,,,,,geometric_oval_081.png,period,1.053,11,0,11,0,1,,,
,,,,,,,,53,60fceac0ce36d6e4fb4cb429,2021-07-26_22h17.33.131,glasses,2021.1.4,MacIntel,58.82352941,1,,,,,,,,,,,geometric_oval_011.png,x,1.038,12,0,12,0,1,,,
,,,,,,,,53,60fceac0ce36d6e4fb4cb429,2021-07-26_22h17.33.131,glasses,2021.1.4,MacIntel,58.82352941,1,,,,,,,,,,,geometric_oval_081.png,period,1.013,13,0,13,0,1,,,
,,,,,,,,53,60fceac0ce36d6e4fb4cb429,2021-07-26_22h17.33.131,glasses,2021.1.4,MacIntel,58.82352941,1,,,,,,,,,,,geometric_oval_001.png,x,1.011,14,0,14,0,1,,,
,,,,,,,,53,60fceac0ce36d6e4fb4cb429,2021-07-26_22h17.33.131,glasses,2021.1.4,MacIntel,58.82352941,1,,,,,,,,,,,geometric_oval_041.png,x,1.997,15,0,15,0,1,,,
,,,,,,,,53,60fceac0ce36d6e4fb4cb429,2021-07-26_22h17.33.131,glasses,2021.1.4,MacIntel,58.82352941,1,,,,,,,,,,,geometric_oval_081.png,period,1.018,16,0,16,0,1,,,
,,,,,,,,53,60fceac0ce36d6e4fb4cb429,2021-07-26_22h17.33.131,glasses,2021.1.4,MacIntel,58.82352941,1,,,,,,,,,,,geometric_oval_011.png,x,1.012,17,0,17,0,1,,,
,,,,,,,,53,60fceac0ce36d6e4fb4cb429,2021-07-26_22h17.33.131,glasses,2021.1.4,MacIntel,58.82352941,1,,,,,,,,,,,geometric_oval_061.png,period,1.004,18,0,18,0,1,,,
,,,,,,,,53,60fceac0ce36d6e4fb4cb429,2021-07-26_22h17.33.131,glasses,2021.1.4,MacIntel,58.82352941,1,,,,,,,,,,,geometric_oval_021.png,x,0.977,19,0,19,0,1,,,
,,,,,,,,53,60fceac0ce36d6e4fb4cb429,2021-07-26_22h17.33.131,glasses,2021.1.4,MacIntel,58.82352941,1,,,,,,,,,,,geometric_oval_001.png,x,1.003,20,0,20,0,1,,,
,,,,,,,,53,60fceac0ce36d6e4fb4cb429,2021-07-26_22h17.33.131,glasses,2021.1.4,MacIntel,58.82352941,1,,,,,,,,,,,geometric_oval_051.png,period,1.078,21,0,21,0,1,,,
,,,,,,,,53,60fceac0ce36d6e4fb4cb429,2021-07-26_22h17.33.131,glasses,2021.1.4,MacIntel,58.82352941,1,,,,,,,,,,,geometric_oval_061.png,period,0.963,22,0,22,0,1,,,
,,,,,,,,53,60fceac0ce36d6e4fb4cb429,2021-07-26_22h17.33.131,glasses,2021.1.4,MacIntel,58.82352941,1,,,,,,,,,,,geometric_oval_061.png,period,1.006,23,0,23,0,1,,,
,,,,,,,,53,60fceac0ce36d6e4fb4cb429,2021-07-26_22h17.33.131,glasses,2021.1.4,MacIntel,58.82352941,1,,,,,,,,,,,geometric_oval_081.png,period,1.005,24,0,24,0,1,,,
,,,,,,,,53,60fceac0ce36d6e4fb4cb429,2021-07-26_22h17.33.131,glasses,2021.1.4,MacIntel,58.82352941,1,,,,,,,,,,,geometric_oval_101.png,period,1.004,25,0,25,0,1,,,
,,,,,,,,53,60fceac0ce36d6e4fb4cb429,2021-07-26_22h17.33.131,glasses,2021.1.4,MacIntel,58.82352941,1,,,,,,,,,,,geometric_oval_071.png,period,1.035,26,0,26,0,1,,,
,,,,,,,,53,60fceac0ce36d6e4fb4cb429,2021-07-26_22h17.33.131,glasses,2021.1.4,MacIntel,58.82352941,1,,,,,,,,,,,geometric_oval_021.png,x,0.931,27,0,27,0,1,,,
,,,,,,,,53,60fceac0ce36d6e4fb4cb429,2021-07-26_22h17.33.131,glasses,2021.1.4,MacIntel,58.82352941,1,,,,,,,,,,,geometric_oval_031.png,x,0.985,28,0,28,0,1,,,
,,,,,,,,53,60fceac0ce36d6e4fb4cb429,2021-07-26_22h17.33.131,glasses,2021.1.4,MacIntel,58.82352941,1,,,,,,,,,,,geometric_oval_071.png,period,0.961,29,0,29,0,1,,,
,,,,,,,,53,60fceac0ce36d6e4fb4cb429,2021-07-26_22h17.33.131,glasses,2021.1.4,MacIntel,58.82352941,1,,,,,,,,,,,geometric_oval_041.png,x,1.271,30,0,30,0,1,,,
,,,,,,,,53,60fceac0ce36d6e4fb4cb429,2021-07-26_22h17.33.131,glasses,2021.1.4,MacIntel,58.82352941,1,,,,,,,,,,,geometric_oval_051.png,x,1.001,31,0,31,0,1,,,
,,,,,,,,53,60fceac0ce36d6e4fb4cb429,2021-07-26_22h17.33.131,glasses,2021.1.4,MacIntel,58.82352941,1,,,,,,,,,,,geometric_oval_051.png,x,1.011,32,0,32,0,1,,,
,,,,,,,,53,60fceac0ce36d6e4fb4cb429,2021-07-26_22h17.33.131,glasses,2021.1.4,MacIntel,58.82352941,1,,,,,,,,,,,geometric_oval_011.png,x,0.996,33,0,33,0,1,,,
,,,,,,,,53,60fceac0ce36d6e4fb4cb429,2021-07-26_22h17.33.131,glasses,2021.1.4,MacIntel,58.82352941,1,,,,,,,,,,,geometric_oval_031.png,x,0.996,34,0,34,0,1,,,
,,,,,,,,53,60fceac0ce36d6e4fb4cb429,2021-07-26_22h17.33.131,glasses,2021.1.4,MacIntel,58.82352941,1,,,,,,,,,,,geometric_oval_101.png,period,1.001,35,0,35,0,1,,,
,,,,,,,,53,60fceac0ce36d6e4fb4cb429,2021-07-26_22h17.33.131,glasses,2021.1.4,MacIntel,58.82352941,1,,,,,,,,,,,geometric_oval_091.png,period,1.014,36,0,36,0,1,,,
,,,,,,,,53,60fceac0ce36d6e4fb4cb429,2021-07-26_22h17.33.131,glasses,2021.1.4,MacIntel,58.82352941,1,,,,,,,,,,,geometric_oval_051.png,period,0.907,37,0,37,0,1,,,
,,,,,,,,53,60fceac0ce36d6e4fb4cb429,2021-07-26_22h17.33.131,glasses,2021.1.4,MacIntel,58.82352941,1,,,,,,,,,,,geometric_oval_081.png,period,1.093,38,0,38,0,1,,,
,,,,,,,,53,60fceac0ce36d6e4fb4cb429,2021-07-26_22h17.33.131,glasses,2021.1.4,MacIntel,58.82352941,1,,,,,,,,,,,geometric_oval_091.png,period,1.002,39,0,39,0,1,,,
,,,,,,,,53,60fceac0ce36d6e4fb4cb429,2021-07-26_22h17.33.131,glasses,2021.1.4,MacIntel,58.82352941,1,,,,,,,,,,,geometric_oval_091.png,period,0.974,40,0,40,0,1,,,
,,,,,,,,53,60fceac0ce36d6e4fb4cb429,2021-07-26_22h17.33.131,glasses,2021.1.4,MacIntel,58.82352941,1,,,,,,,,,,,geometric_oval_061.png,period,0.944,41,0,41,0,1,,,
,,,,,,,,53,60fceac0ce36d6e4fb4cb429,2021-07-26_22h17.33.131,glasses,2021.1.4,MacIntel,58.82352941,1,,,,,,,,,,,geometric_oval_101.png,period,0.993,42,0,42,0,1,,,
,,,,,,,,53,60fceac0ce36d6e4fb4cb429,2021-07-26_22h17.33.131,glasses,2021.1.4,MacIntel,58.82352941,1,,,,,,,,,,,geometric_oval_021.png,x,0.936,43,0,43,0,1,,,
,,,,,,,,53,60fceac0ce36d6e4fb4cb429,2021-07-26_22h17.33.131,glasses,2021.1.4,MacIntel,58.82352941,1,,,,,,,,,,,geometric_oval_081.png,period,0.963,44,0,44,0,1,,,
,,,,,,,,53,60fceac0ce36d6e4fb4cb429,2021-07-26_22h17.33.131,glasses,2021.1.4,MacIntel,58.82352941,1,,,,,,,,,,,geometric_oval_071.png,period,0.956,45,0,45,0,1,,,
,,,,,,,,53,60fceac0ce36d6e4fb4cb429,2021-07-26_22h17.33.131,glasses,2021.1.4,MacIntel,58.82352941,1,,,,,,,,,,,geometric_oval_041.png,x,0.885,46,0,46,0,1,,,
,,,,,,,,53,60fceac0ce36d6e4fb4cb429,2021-07-26_22h17.33.131,glasses,2021.1.4,MacIntel,58.82352941,1,,,,,,,,,,,geometric_oval_001.png,x,0.954,47,0,47,0,1,,,
,,,,,,,,53,60fceac0ce36d6e4fb4cb429,2021-07-26_22h17.33.131,glasses,2021.1.4,MacIntel,58.82352941,1,,,,,,,,,,,geometric_oval_061.png,period,0.91,48,0,48,0,1,,,
,,,,,,,,53,60fceac0ce36d6e4fb4cb429,2021-07-26_22h17.33.131,glasses,2021.1.4,MacIntel,58.82352941,1,,,,,,,,,,,geometric_oval_031.png,x,0.983,49,0,49,0,1,,,
,,,,,,,,53,60fceac0ce36d6e4fb4cb429,2021-07-26_22h17.33.131,glasses,2021.1.4,MacIntel,58.82352941,1,,,,,,,,,,,geometric_oval_061.png,period,0.947,50,0,50,0,1,,,
,,,,,,,,53,60fceac0ce36d6e4fb4cb429,2021-07-26_22h17.33.131,glasses,2021.1.4,MacIntel,58.82352941,1,,,,,,,,,,,geometric_oval_061.png,period,0.881,51,0,51,0,1,,,
,,,,,,,,53,60fceac0ce36d6e4fb4cb429,2021-07-26_22h17.33.131,glasses,2021.1.4,MacIntel,58.82352941,1,,,,,,,,,,,geometric_oval_051.png,period,0.967,52,0,52,0,1,,,
,,,,,,,,53,60fceac0ce36d6e4fb4cb429,2021-07-26_22h17.33.131,glasses,2021.1.4,MacIntel,58.82352941,1,,,,,,,,,,,geometric_oval_101.png,period,0.985,53,0,53,0,1,,,
,,,,,,,,53,60fceac0ce36d6e4fb4cb429,2021-07-26_22h17.33.131,glasses,2021.1.4,MacIntel,58.82352941,1,,,,,,,,,,,geometric_oval_001.png,x,0.98,54,0,54,0,1,,,
,,,,,,,,53,60fceac0ce36d6e4fb4cb429,2021-07-26_22h17.33.131,glasses,2021.1.4,MacIntel,58.82352941,1,,,,,,,,,,,geometric_oval_091.png,period,1.029,55,0,55,0,1,,,
,,,,,,,,53,60fceac0ce36d6e4fb4cb429,2021-07-26_22h17.33.131,glasses,2021.1.4,MacIntel,58.82352941,1,,,,,,,,,,,geometric_oval_071.png,period,1.015,56,0,56,0,1,,,
,,,,,,,,53,60fceac0ce36d6e4fb4cb429,2021-07-26_22h17.33.131,glasses,2021.1.4,MacIntel,58.82352941,1,,,,,,,,,,,geometric_oval_051.png,period,1.017,57,0,57,0,1,,,
,,,,,,,,53,60fceac0ce36d6e4fb4cb429,2021-07-26_22h17.33.131,glasses,2021.1.4,MacIntel,58.82352941,1,,,,,,,,,,,geometric_oval_071.png,period,1.004,58,0,58,0,1,,,
,,,,,,,,53,60fceac0ce36d6e4fb4cb429,2021-07-26_22h17.33.131,glasses,2021.1.4,MacIntel,58.82352941,1,,,,,,,,,,,geometric_oval_091.png,period,1.03,59,0,59,0,1,,,
,,,,,,,,53,60fceac0ce36d6e4fb4cb429,2021-07-26_22h17.33.131,glasses,2021.1.4,MacIntel,58.82352941,1,,,,,,,,,,,geometric_oval_031.png,x,1.052,60,0,60,0,1,,,
,,,,,,,,53,60fceac0ce36d6e4fb4cb429,2021-07-26_22h17.33.131,glasses,2021.1.4,MacIntel,58.82352941,1,,,,,,,,,,,geometric_oval_011.png,x,0.868,61,0,61,0,1,,,
,,,,,,,,53,60fceac0ce36d6e4fb4cb429,2021-07-26_22h17.33.131,glasses,2021.1.4,MacIntel,58.82352941,1,,,,,,,,,,,geometric_oval_001.png,x,0.996,62,0,62,0,1,,,
,,,,,,,,53,60fceac0ce36d6e4fb4cb429,2021-07-26_22h17.33.131,glasses,2021.1.4,MacIntel,58.82352941,1,,,,,,,,,,,geometric_oval_031.png,period,0.995,63,0,63,0,1,,,
,,,,,,,,53,60fceac0ce36d6e4fb4cb429,2021-07-26_22h17.33.131,glasses,2021.1.4,MacIntel,58.82352941,1,,,,,,,,,,,geometric_oval_091.png,period,0.877,64,0,64,0,1,,,
,,,,,,,,53,60fceac0ce36d6e4fb4cb429,2021-07-26_22h17.33.131,glasses,2021.1.4,MacIntel,58.82352941,1,,,,,,,,,,,geometric_oval_001.png,x,0.887,65,0,65,0,1,,,
,,,,,,,,53,60fceac0ce36d6e4fb4cb429,2021-07-26_22h17.33.131,glasses,2021.1.4,MacIntel,58.82352941,1,,,,,,,,,,,geometric_oval_051.png,period,0.945,66,0,66,0,1,,,
,,,,,,,,53,60fceac0ce36d6e4fb4cb429,2021-07-26_22h17.33.131,glasses,2021.1.4,MacIntel,58.82352941,1,,,,,,,,,,,geometric_oval_011.png,x,0.978,67,0,67,0,1,,,
,,,,,,,,53,60fceac0ce36d6e4fb4cb429,2021-07-26_22h17.33.131,glasses,2021.1.4,MacIntel,58.82352941,1,,,,,,,,,,,geometric_oval_031.png,x,1.053,68,0,68,0,1,,,
,,,,,,,,53,60fceac0ce36d6e4fb4cb429,2021-07-26_22h17.33.131,glasses,2021.1.4,MacIntel,58.82352941,1,,,,,,,,,,,geometric_oval_041.png,x,0.985,69,0,69,0,1,,,
,,,,,,,,53,60fceac0ce36d6e4fb4cb429,2021-07-26_22h17.33.131,glasses,2021.1.4,MacIntel,58.82352941,1,,,,,,,,,,,geometric_oval_011.png,x,1.071,70,0,70,0,1,,,
,,,,,,,,53,60fceac0ce36d6e4fb4cb429,2021-07-26_22h17.33.131,glasses,2021.1.4,MacIntel,58.82352941,1,,,,,,,,,,,geometric_oval_101.png,period,1.013,71,0,71,0,1,,,
,,,,,,,,53,60fceac0ce36d6e4fb4cb429,2021-07-26_22h17.33.131,glasses,2021.1.4,MacIntel,58.82352941,1,,,,,,,,,,,geometric_oval_011.png,x,1.046,72,0,72,0,1,,,
,,,,,,,,53,60fceac0ce36d6e4fb4cb429,2021-07-26_22h17.33.131,glasses,2021.1.4,MacIntel,58.82352941,1,,,,,,,,,,,geometric_oval_091.png,period,0.921,73,0,73,0,1,,,
,,,,,,,,53,60fceac0ce36d6e4fb4cb429,2021-07-26_22h17.33.131,glasses,2021.1.4,MacIntel,58.82352941,1,,,,,,,,,,,geometric_oval_081.png,period,0.953,74,0,74,0,1,,,
,,,,,,,,53,60fceac0ce36d6e4fb4cb429,2021-07-26_22h17.33.131,glasses,2021.1.4,MacIntel,58.82352941,1,,,,,,,,,,,geometric_oval_001.png,x,0.968,75,0,75,0,1,,,
,,,,,,,,53,60fceac0ce36d6e4fb4cb429,2021-07-26_22h17.33.131,glasses,2021.1.4,MacIntel,58.82352941,1,,,,,,,,,,,geometric_oval_041.png,period,1.037,76,0,76,0,1,,,
,,,,,,,,53,60fceac0ce36d6e4fb4cb429,2021-07-26_22h17.33.131,glasses,2021.1.4,MacIntel,58.82352941,1,,,,,,,,,,,geometric_oval_101.png,period,1.019,77,0,77,0,1,,,
,,,,,,,,53,60fceac0ce36d6e4fb4cb429,2021-07-26_22h17.33.131,glasses,2021.1.4,MacIntel,58.82352941,1,,,,,,,,,,,geometric_oval_001.png,x,0.931,78,0,78,0,1,,,
,,,,,,,,53,60fceac0ce36d6e4fb4cb429,2021-07-26_22h17.33.131,glasses,2021.1.4,MacIntel,58.82352941,1,,,,,,,,,,,geometric_oval_091.png,period,1.047,79,0,79,0,1,,,
,,,,,,,,53,60fceac0ce36d6e4fb4cb429,2021-07-26_22h17.33.131,glasses,2021.1.4,MacIntel,58.82352941,1,,,,,,,,,,,geometric_oval_101.png,period,0.896,80,0,80,0,1,,,
,,,,,,,,53,60fceac0ce36d6e4fb4cb429,2021-07-26_22h17.33.131,glasses,2021.1.4,MacIntel,58.82352941,1,,,,,,,,,,,geometric_oval_041.png,period,1.775,81,0,81,0,1,,,
,,,,,,,,53,60fceac0ce36d6e4fb4cb429,2021-07-26_22h17.33.131,glasses,2021.1.4,MacIntel,58.82352941,1,,,,,,,,,,,geometric_oval_021.png,x,0.929,82,0,82,0,1,,,
,,,,,,,,53,60fceac0ce36d6e4fb4cb429,2021-07-26_22h17.33.131,glasses,2021.1.4,MacIntel,58.82352941,1,,,,,,,,,,,geometric_oval_071.png,period,1.189,83,0,83,0,1,,,
,,,,,,,,53,60fceac0ce36d6e4fb4cb429,2021-07-26_22h17.33.131,glasses,2021.1.4,MacIntel,58.82352941,1,,,,,,,,,,,geometric_oval_101.png,period,1.02,84,0,84,0,1,,,
,,,,,,,,53,60fceac0ce36d6e4fb4cb429,2021-07-26_22h17.33.131,glasses,2021.1.4,MacIntel,58.82352941,1,,,,,,,,,,,geometric_oval_021.png,x,0.912,85,0,85,0,1,,,
,,,,,,,,53,60fceac0ce36d6e4fb4cb429,2021-07-26_22h17.33.131,glasses,2021.1.4,MacIntel,58.82352941,1,,,,,,,,,,,geometric_oval_081.png,period,1.077,86,0,86,0,1,,,
,,,,,,,,53,60fceac0ce36d6e4fb4cb429,2021-07-26_22h17.33.131,glasses,2021.1.4,MacIntel,58.82352941,1,,,,,,,,,,,geometric_oval_051.png,period,0.854,87,0,87,0,1,,,
,,,,,,,,53,60fceac0ce36d6e4fb4cb429,2021-07-26_22h17.33.131,glasses,2021.1.4,MacIntel,58.82352941,1,,,,,,,,,,,,,,,,,,,correct,period,9.547
