condition,glasses1,glasses2,begin_loop.thisRepN,begin_loop.thisTrialN,begin_loop.thisN,begin_loop.thisIndex,begin_loop.ran,participant,PROLIFIC_ID*,date,expName,psychopyVersion,OS,frameRate,session,similarity_resp.keys,similarity_resp.rt,bl_loop.thisRepN,bl_loop.thisTrialN,bl_loop.thisN,bl_loop.thisIndex,bl_loop.ran,ask_glasses,glasses_left_num,glasses_right_num,classification_glasses,class_resp.keys,class_resp.rt,class_loop.thisRepN,class_loop.thisTrialN,class_loop.thisN,class_loop.thisIndex,class_loop.ran,manipulation_check,key_resp_3.keys,key_resp_3.rt
inverted_glasses,oval_rectangle_001.png,oval_rectangle_101.png,0,0,0,0,1,67,60ff25387b7e06f23418ccf8,2021-07-26_23h18.07.093,glasses,2021.1.4,MacIntel,60.0024001,1,,,,,,,,,,,,,,,,,,,,,
,,,,,,,,67,60ff25387b7e06f23418ccf8,2021-07-26_23h18.07.093,glasses,2021.1.4,MacIntel,60.0024001,1,period,5.8621,0,0,0,16,1,glasses1,7,5,,,,,,,,,,,
,,,,,,,,67,60ff25387b7e06f23418ccf8,2021-07-26_23h18.07.093,glasses,2021.1.4,MacIntel,60.0024001,1,x,2.4585,0,1,1,6,1,glasses1,3,5,,,,,,,,,,,
,,,,,,,,67,60ff25387b7e06f23418ccf8,2021-07-26_23h18.07.093,glasses,2021.1.4,MacIntel,60.0024001,1,period,2.293,0,2,2,14,1,glasses1,3,1,,,,,,,,,,,
,,,,,,,,67,60ff25387b7e06f23418ccf8,2021-07-26_23h18.07.093,glasses,2021.1.4,MacIntel,60.0024001,1,x,2.7009,0,3,3,3,1,glasses1,6,8,,,,,,,,,,,
,,,,,,,,67,60ff25387b7e06f23418ccf8,2021-07-26_23h18.07.093,glasses,2021.1.4,MacIntel,60.0024001,1,x,2.3309,0,4,4,5,1,glasses1,1,3,,,,,,,,,,,
,,,,,,,,67,60ff25387b7e06f23418ccf8,2021-07-26_23h18.07.093,glasses,2021.1.4,MacIntel,60.0024001,1,x,2.5961,0,5,5,33,1,glasses2,5,3,,,,,,,,,,,
,,,,,,,,67,60ff25387b7e06f23418ccf8,2021-07-26_23h18.07.093,glasses,2021.1.4,MacIntel,60.0024001,1,period,2.0167,0,6,6,15,1,glasses1,5,3,,,,,,,,,,,
,,,,,,,,67,60ff25387b7e06f23418ccf8,2021-07-26_23h18.07.093,glasses,2021.1.4,MacIntel,60.0024001,1,period,2.2915,0,7,7,13,1,glasses1,10,8,,,,,,,,,,,
,,,,,,,,67,60ff25387b7e06f23418ccf8,2021-07-26_23h18.07.093,glasses,2021.1.4,MacIntel,60.0024001,1,x,2.2777,0,8,8,8,1,glasses1,7,9,,,,,,,,,,,
,,,,,,,,67,60ff25387b7e06f23418ccf8,2021-07-26_23h18.07.093,glasses,2021.1.4,MacIntel,60.0024001,1,period,2.508,0,9,9,22,1,glasses2,8,10,,,,,,,,,,,
,,,,,,,,67,60ff25387b7e06f23418ccf8,2021-07-26_23h18.07.093,glasses,2021.1.4,MacIntel,60.0024001,1,period,1.291,0,10,10,11,1,glasses1,6,4,,,,,,,,,,,
,,,,,,,,67,60ff25387b7e06f23418ccf8,2021-07-26_23h18.07.093,glasses,2021.1.4,MacIntel,60.0024001,1,x,2.193,0,11,11,4,1,glasses1,8,10,,,,,,,,,,,
,,,,,,,,67,60ff25387b7e06f23418ccf8,2021-07-26_23h18.07.093,glasses,2021.1.4,MacIntel,60.0024001,1,period,2.1326,0,12,12,24,1,glasses2,3,5,,,,,,,,,,,
,,,,,,,,67,60ff25387b7e06f23418ccf8,2021-07-26_23h18.07.093,glasses,2021.1.4,MacIntel,60.0024001,1,x,2.2799,0,13,13,1,1,glasses1,2,4,,,,,,,,,,,
,,,,,,,,67,60ff25387b7e06f23418ccf8,2021-07-26_23h18.07.093,glasses,2021.1.4,MacIntel,60.0024001,1,x,2.2142,0,14,14,9,1,glasses1,2,0,,,,,,,,,,,
,,,,,,,,67,60ff25387b7e06f23418ccf8,2021-07-26_23h18.07.093,glasses,2021.1.4,MacIntel,60.0024001,1,period,1.8912,0,15,15,25,1,glasses2,5,7,,,,,,,,,,,
,,,,,,,,67,60ff25387b7e06f23418ccf8,2021-07-26_23h18.07.093,glasses,2021.1.4,MacIntel,60.0024001,1,x,2.1747,0,16,16,2,1,glasses1,4,6,,,,,,,,,,,
,,,,,,,,67,60ff25387b7e06f23418ccf8,2021-07-26_23h18.07.093,glasses,2021.1.4,MacIntel,60.0024001,1,period,1.7406,0,17,17,12,1,glasses1,8,6,,,,,,,,,,,
,,,,,,,,67,60ff25387b7e06f23418ccf8,2021-07-26_23h18.07.093,glasses,2021.1.4,MacIntel,60.0024001,1,x,1.7797,0,18,18,30,1,glasses2,8,6,,,,,,,,,,,
,,,,,,,,67,60ff25387b7e06f23418ccf8,2021-07-26_23h18.07.093,glasses,2021.1.4,MacIntel,60.0024001,1,x,3.1371,0,19,19,21,1,glasses2,6,8,,,,,,,,,,,
,,,,,,,,67,60ff25387b7e06f23418ccf8,2021-07-26_23h18.07.093,glasses,2021.1.4,MacIntel,60.0024001,1,x,2.0467,0,20,20,31,1,glasses2,10,8,,,,,,,,,,,
,,,,,,,,67,60ff25387b7e06f23418ccf8,2021-07-26_23h18.07.093,glasses,2021.1.4,MacIntel,60.0024001,1,period,1.8177,0,21,21,7,1,glasses1,5,7,,,,,,,,,,,
,,,,,,,,67,60ff25387b7e06f23418ccf8,2021-07-26_23h18.07.093,glasses,2021.1.4,MacIntel,60.0024001,1,x,1.8526,0,22,22,32,1,glasses2,3,1,,,,,,,,,,,
,,,,,,,,67,60ff25387b7e06f23418ccf8,2021-07-26_23h18.07.093,glasses,2021.1.4,MacIntel,60.0024001,1,x,1.6592,0,23,23,35,1,glasses2,9,7,,,,,,,,,,,
,,,,,,,,67,60ff25387b7e06f23418ccf8,2021-07-26_23h18.07.093,glasses,2021.1.4,MacIntel,60.0024001,1,period,1.521,0,24,24,17,1,glasses1,9,7,,,,,,,,,,,
,,,,,,,,67,60ff25387b7e06f23418ccf8,2021-07-26_23h18.07.093,glasses,2021.1.4,MacIntel,60.0024001,1,period,1.867,0,25,25,18,1,glasses2,0,2,,,,,,,,,,,
,,,,,,,,67,60ff25387b7e06f23418ccf8,2021-07-26_23h18.07.093,glasses,2021.1.4,MacIntel,60.0024001,1,period,3.4947,0,26,26,23,1,glasses2,1,3,,,,,,,,,,,
,,,,,,,,67,60ff25387b7e06f23418ccf8,2021-07-26_23h18.07.093,glasses,2021.1.4,MacIntel,60.0024001,1,period,2.3028,0,27,27,10,1,glasses1,4,2,,,,,,,,,,,
,,,,,,,,67,60ff25387b7e06f23418ccf8,2021-07-26_23h18.07.093,glasses,2021.1.4,MacIntel,60.0024001,1,period,1.7613,0,28,28,19,1,glasses2,2,4,,,,,,,,,,,
,,,,,,,,67,60ff25387b7e06f23418ccf8,2021-07-26_23h18.07.093,glasses,2021.1.4,MacIntel,60.0024001,1,period,1.9254,0,29,29,26,1,glasses2,7,9,,,,,,,,,,,
,,,,,,,,67,60ff25387b7e06f23418ccf8,2021-07-26_23h18.07.093,glasses,2021.1.4,MacIntel,60.0024001,1,period,1.5473,0,30,30,20,1,glasses2,4,6,,,,,,,,,,,
,,,,,,,,67,60ff25387b7e06f23418ccf8,2021-07-26_23h18.07.093,glasses,2021.1.4,MacIntel,60.0024001,1,x,1.7665,0,31,31,29,1,glasses2,6,4,,,,,,,,,,,
,,,,,,,,67,60ff25387b7e06f23418ccf8,2021-07-26_23h18.07.093,glasses,2021.1.4,MacIntel,60.0024001,1,x,2.9745,0,32,32,28,1,glasses2,4,2,,,,,,,,,,,
,,,,,,,,67,60ff25387b7e06f23418ccf8,2021-07-26_23h18.07.093,glasses,2021.1.4,MacIntel,60.0024001,1,x,2.3435,0,33,33,0,1,glasses1,0,2,,,,,,,,,,,
,,,,,,,,67,60ff25387b7e06f23418ccf8,2021-07-26_23h18.07.093,glasses,2021.1.4,MacIntel,60.0024001,1,x,2.3175,0,34,34,27,1,glasses2,2,0,,,,,,,,,,,
,,,,,,,,67,60ff25387b7e06f23418ccf8,2021-07-26_23h18.07.093,glasses,2021.1.4,MacIntel,60.0024001,1,x,1.6573,0,35,35,34,1,glasses2,7,5,,,,,,,,,,,
,,,,,,,,67,60ff25387b7e06f23418ccf8,2021-07-26_23h18.07.093,glasses,2021.1.4,MacIntel,60.0024001,1,,,,,,,,,,,oval_rectangle_031.png,period,4.8585,0,0,0,0,1,,,
,,,,,,,,67,60ff25387b7e06f23418ccf8,2021-07-26_23h18.07.093,glasses,2021.1.4,MacIntel,60.0024001,1,,,,,,,,,,,oval_rectangle_101.png,period,1.4952,1,0,1,0,1,,,
,,,,,,,,67,60ff25387b7e06f23418ccf8,2021-07-26_23h18.07.093,glasses,2021.1.4,MacIntel,60.0024001,1,,,,,,,,,,,oval_rectangle_061.png,period,1.2151,2,0,2,0,1,,,
,,,,,,,,67,60ff25387b7e06f23418ccf8,2021-07-26_23h18.07.093,glasses,2021.1.4,MacIntel,60.0024001,1,,,,,,,,,,,oval_rectangle_011.png,x,1.1418,3,0,3,0,1,,,
,,,,,,,,67,60ff25387b7e06f23418ccf8,2021-07-26_23h18.07.093,glasses,2021.1.4,MacIntel,60.0024001,1,,,,,,,,,,,oval_rectangle_001.png,x,1.2314,4,0,4,0,1,,,
,,,,,,,,67,60ff25387b7e06f23418ccf8,2021-07-26_23h18.07.093,glasses,2021.1.4,MacIntel,60.0024001,1,,,,,,,,,,,oval_rectangle_071.png,period,1.1304,5,0,5,0,1,,,
,,,,,,,,67,60ff25387b7e06f23418ccf8,2021-07-26_23h18.07.093,glasses,2021.1.4,MacIntel,60.0024001,1,,,,,,,,,,,oval_rectangle_051.png,period,1.0748,6,0,6,0,1,,,
,,,,,,,,67,60ff25387b7e06f23418ccf8,2021-07-26_23h18.07.093,glasses,2021.1.4,MacIntel,60.0024001,1,,,,,,,,,,,oval_rectangle_021.png,x,1.0969,7,0,7,0,1,,,
,,,,,,,,67,60ff25387b7e06f23418ccf8,2021-07-26_23h18.07.093,glasses,2021.1.4,MacIntel,60.0024001,1,,,,,,,,,,,oval_rectangle_091.png,period,1.2219,8,0,8,0,1,,,
,,,,,,,,67,60ff25387b7e06f23418ccf8,2021-07-26_23h18.07.093,glasses,2021.1.4,MacIntel,60.0024001,1,,,,,,,,,,,oval_rectangle_081.png,period,1.163,9,0,9,0,1,,,
,,,,,,,,67,60ff25387b7e06f23418ccf8,2021-07-26_23h18.07.093,glasses,2021.1.4,MacIntel,60.0024001,1,,,,,,,,,,,oval_rectangle_061.png,period,0.9088,10,0,10,0,1,,,
,,,,,,,,67,60ff25387b7e06f23418ccf8,2021-07-26_23h18.07.093,glasses,2021.1.4,MacIntel,60.0024001,1,,,,,,,,,,,oval_rectangle_061.png,period,1.6409,11,0,11,0,1,,,
,,,,,,,,67,60ff25387b7e06f23418ccf8,2021-07-26_23h18.07.093,glasses,2021.1.4,MacIntel,60.0024001,1,,,,,,,,,,,oval_rectangle_101.png,period,1.1064,12,0,12,0,1,,,
,,,,,,,,67,60ff25387b7e06f23418ccf8,2021-07-26_23h18.07.093,glasses,2021.1.4,MacIntel,60.0024001,1,,,,,,,,,,,oval_rectangle_041.png,x,0.5611,13,0,13,0,1,,,
,,,,,,,,67,60ff25387b7e06f23418ccf8,2021-07-26_23h18.07.093,glasses,2021.1.4,MacIntel,60.0024001,1,,,,,,,,,,,oval_rectangle_061.png,period,1.6946,14,0,14,0,1,,,
,,,,,,,,67,60ff25387b7e06f23418ccf8,2021-07-26_23h18.07.093,glasses,2021.1.4,MacIntel,60.0024001,1,,,,,,,,,,,oval_rectangle_091.png,period,1.1118,15,0,15,0,1,,,
,,,,,,,,67,60ff25387b7e06f23418ccf8,2021-07-26_23h18.07.093,glasses,2021.1.4,MacIntel,60.0024001,1,,,,,,,,,,,oval_rectangle_011.png,x,0.9891,16,0,16,0,1,,,
,,,,,,,,67,60ff25387b7e06f23418ccf8,2021-07-26_23h18.07.093,glasses,2021.1.4,MacIntel,60.0024001,1,,,,,,,,,,,oval_rectangle_101.png,period,1.1926,17,0,17,0,1,,,
,,,,,,,,67,60ff25387b7e06f23418ccf8,2021-07-26_23h18.07.093,glasses,2021.1.4,MacIntel,60.0024001,1,,,,,,,,,,,oval_rectangle_061.png,period,2.6803,18,0,18,0,1,,,
,,,,,,,,67,60ff25387b7e06f23418ccf8,2021-07-26_23h18.07.093,glasses,2021.1.4,MacIntel,60.0024001,1,,,,,,,,,,,oval_rectangle_091.png,period,1.1636,19,0,19,0,1,,,
,,,,,,,,67,60ff25387b7e06f23418ccf8,2021-07-26_23h18.07.093,glasses,2021.1.4,MacIntel,60.0024001,1,,,,,,,,,,,oval_rectangle_101.png,period,0.7406,20,0,20,0,1,,,
,,,,,,,,67,60ff25387b7e06f23418ccf8,2021-07-26_23h18.07.093,glasses,2021.1.4,MacIntel,60.0024001,1,,,,,,,,,,,oval_rectangle_071.png,period,0.8457,21,0,21,0,1,,,
,,,,,,,,67,60ff25387b7e06f23418ccf8,2021-07-26_23h18.07.093,glasses,2021.1.4,MacIntel,60.0024001,1,,,,,,,,,,,oval_rectangle_071.png,period,0.5271,22,0,22,0,1,,,
,,,,,,,,67,60ff25387b7e06f23418ccf8,2021-07-26_23h18.07.093,glasses,2021.1.4,MacIntel,60.0024001,1,,,,,,,,,,,oval_rectangle_101.png,period,0.4984,23,0,23,0,1,,,
,,,,,,,,67,60ff25387b7e06f23418ccf8,2021-07-26_23h18.07.093,glasses,2021.1.4,MacIntel,60.0024001,1,,,,,,,,,,,oval_rectangle_001.png,x,0.5312,24,0,24,0,1,,,
,,,,,,,,67,60ff25387b7e06f23418ccf8,2021-07-26_23h18.07.093,glasses,2021.1.4,MacIntel,60.0024001,1,,,,,,,,,,,oval_rectangle_031.png,period,0.2795,25,0,25,0,1,,,
,,,,,,,,67,60ff25387b7e06f23418ccf8,2021-07-26_23h18.07.093,glasses,2021.1.4,MacIntel,60.0024001,1,,,,,,,,,,,oval_rectangle_021.png,x,0.5561,26,0,26,0,1,,,
,,,,,,,,67,60ff25387b7e06f23418ccf8,2021-07-26_23h18.07.093,glasses,2021.1.4,MacIntel,60.0024001,1,,,,,,,,,,,oval_rectangle_021.png,x,0.5166,27,0,27,0,1,,,
,,,,,,,,67,60ff25387b7e06f23418ccf8,2021-07-26_23h18.07.093,glasses,2021.1.4,MacIntel,60.0024001,1,,,,,,,,,,,oval_rectangle_001.png,x,0.4638,28,0,28,0,1,,,
,,,,,,,,67,60ff25387b7e06f23418ccf8,2021-07-26_23h18.07.093,glasses,2021.1.4,MacIntel,60.0024001,1,,,,,,,,,,,oval_rectangle_091.png,x,0.5594,29,0,29,0,1,,,
,,,,,,,,67,60ff25387b7e06f23418ccf8,2021-07-26_23h18.07.093,glasses,2021.1.4,MacIntel,60.0024001,1,,,,,,,,,,,oval_rectangle_081.png,period,0.4268,30,0,30,0,1,,,
,,,,,,,,67,60ff25387b7e06f23418ccf8,2021-07-26_23h18.07.093,glasses,2021.1.4,MacIntel,60.0024001,1,,,,,,,,,,,oval_rectangle_061.png,period,0.4207,31,0,31,0,1,,,
,,,,,,,,67,60ff25387b7e06f23418ccf8,2021-07-26_23h18.07.093,glasses,2021.1.4,MacIntel,60.0024001,1,,,,,,,,,,,oval_rectangle_061.png,period,0.4738,32,0,32,0,1,,,
,,,,,,,,67,60ff25387b7e06f23418ccf8,2021-07-26_23h18.07.093,glasses,2021.1.4,MacIntel,60.0024001,1,,,,,,,,,,,oval_rectangle_081.png,period,0.4616,33,0,33,0,1,,,
,,,,,,,,67,60ff25387b7e06f23418ccf8,2021-07-26_23h18.07.093,glasses,2021.1.4,MacIntel,60.0024001,1,,,,,,,,,,,oval_rectangle_001.png,x,0.4092,34,0,34,0,1,,,
,,,,,,,,67,60ff25387b7e06f23418ccf8,2021-07-26_23h18.07.093,glasses,2021.1.4,MacIntel,60.0024001,1,,,,,,,,,,,oval_rectangle_051.png,period,2.6268,35,0,35,0,1,,,
,,,,,,,,67,60ff25387b7e06f23418ccf8,2021-07-26_23h18.07.093,glasses,2021.1.4,MacIntel,60.0024001,1,,,,,,,,,,,oval_rectangle_031.png,x,0.823,36,0,36,0,1,,,
,,,,,,,,67,60ff25387b7e06f23418ccf8,2021-07-26_23h18.07.093,glasses,2021.1.4,MacIntel,60.0024001,1,,,,,,,,,,,oval_rectangle_091.png,period,0.4675,37,0,37,0,1,,,
,,,,,,,,67,60ff25387b7e06f23418ccf8,2021-07-26_23h18.07.093,glasses,2021.1.4,MacIntel,60.0024001,1,,,,,,,,,,,oval_rectangle_051.png,period,0.6048,38,0,38,0,1,,,
,,,,,,,,67,60ff25387b7e06f23418ccf8,2021-07-26_23h18.07.093,glasses,2021.1.4,MacIntel,60.0024001,1,,,,,,,,,,,oval_rectangle_081.png,period,0.643,39,0,39,0,1,,,
,,,,,,,,67,60ff25387b7e06f23418ccf8,2021-07-26_23h18.07.093,glasses,2021.1.4,MacIntel,60.0024001,1,,,,,,,,,,,oval_rectangle_031.png,x,0.4594,40,0,40,0,1,,,
,,,,,,,,67,60ff25387b7e06f23418ccf8,2021-07-26_23h18.07.093,glasses,2021.1.4,MacIntel,60.0024001,1,,,,,,,,,,,oval_rectangle_081.png,period,0.5571,41,0,41,0,1,,,
,,,,,,,,67,60ff25387b7e06f23418ccf8,2021-07-26_23h18.07.093,glasses,2021.1.4,MacIntel,60.0024001,1,,,,,,,,,,,oval_rectangle_041.png,period,0.4285,42,0,42,0,1,,,
,,,,,,,,67,60ff25387b7e06f23418ccf8,2021-07-26_23h18.07.093,glasses,2021.1.4,MacIntel,60.0024001,1,,,,,,,,,,,oval_rectangle_021.png,x,0.4382,43,0,43,0,1,,,
,,,,,,,,67,60ff25387b7e06f23418ccf8,2021-07-26_23h18.07.093,glasses,2021.1.4,MacIntel,60.0024001,1,,,,,,,,,,,oval_rectangle_091.png,period,0.5783,44,0,44,0,1,,,
,,,,,,,,67,60ff25387b7e06f23418ccf8,2021-07-26_23h18.07.093,glasses,2021.1.4,MacIntel,60.0024001,1,,,,,,,,,,,oval_rectangle_041.png,period,1.4233,45,0,45,0,1,,,
,,,,,,,,67,60ff25387b7e06f23418ccf8,2021-07-26_23h18.07.093,glasses,2021.1.4,MacIntel,60.0024001,1,,,,,,,,,,,oval_rectangle_031.png,x,0.5448,46,0,46,0,1,,,
,,,,,,,,67,60ff25387b7e06f23418ccf8,2021-07-26_23h18.07.093,glasses,2021.1.4,MacIntel,60.0024001,1,,,,,,,,,,,oval_rectangle_091.png,period,0.9556,47,0,47,0,1,,,
,,,,,,,,67,60ff25387b7e06f23418ccf8,2021-07-26_23h18.07.093,glasses,2021.1.4,MacIntel,60.0024001,1,,,,,,,,,,,oval_rectangle_071.png,period,0.5391,48,0,48,0,1,,,
,,,,,,,,67,60ff25387b7e06f23418ccf8,2021-07-26_23h18.07.093,glasses,2021.1.4,MacIntel,60.0024001,1,,,,,,,,,,,oval_rectangle_041.png,x,0.7653,49,0,49,0,1,,,
,,,,,,,,67,60ff25387b7e06f23418ccf8,2021-07-26_23h18.07.093,glasses,2021.1.4,MacIntel,60.0024001,1,,,,,,,,,,,oval_rectangle_081.png,period,0.6132,50,0,50,0,1,,,
,,,,,,,,67,60ff25387b7e06f23418ccf8,2021-07-26_23h18.07.093,glasses,2021.1.4,MacIntel,60.0024001,1,,,,,,,,,,,oval_rectangle_051.png,period,1.4489,51,0,51,0,1,,,
,,,,,,,,67,60ff25387b7e06f23418ccf8,2021-07-26_23h18.07.093,glasses,2021.1.4,MacIntel,60.0024001,1,,,,,,,,,,,oval_rectangle_001.png,x,0.4389,52,0,52,0,1,,,
,,,,,,,,67,60ff25387b7e06f23418ccf8,2021-07-26_23h18.07.093,glasses,2021.1.4,MacIntel,60.0024001,1,,,,,,,,,,,oval_rectangle_051.png,x,0.8314,53,0,53,0,1,,,
,,,,,,,,67,60ff25387b7e06f23418ccf8,2021-07-26_23h18.07.093,glasses,2021.1.4,MacIntel,60.0024001,1,,,,,,,,,,,oval_rectangle_051.png,x,0.7093,54,0,54,0,1,,,
,,,,,,,,67,60ff25387b7e06f23418ccf8,2021-07-26_23h18.07.093,glasses,2021.1.4,MacIntel,60.0024001,1,,,,,,,,,,,oval_rectangle_101.png,period,0.4412,55,0,55,0,1,,,
,,,,,,,,67,60ff25387b7e06f23418ccf8,2021-07-26_23h18.07.093,glasses,2021.1.4,MacIntel,60.0024001,1,,,,,,,,,,,oval_rectangle_001.png,period,0.3883,56,0,56,0,1,,,
,,,,,,,,67,60ff25387b7e06f23418ccf8,2021-07-26_23h18.07.093,glasses,2021.1.4,MacIntel,60.0024001,1,,,,,,,,,,,oval_rectangle_031.png,x,0.721,57,0,57,0,1,,,
,,,,,,,,67,60ff25387b7e06f23418ccf8,2021-07-26_23h18.07.093,glasses,2021.1.4,MacIntel,60.0024001,1,,,,,,,,,,,oval_rectangle_091.png,period,0.5324,58,0,58,0,1,,,
,,,,,,,,67,60ff25387b7e06f23418ccf8,2021-07-26_23h18.07.093,glasses,2021.1.4,MacIntel,60.0024001,1,,,,,,,,,,,oval_rectangle_081.png,period,0.6157,59,0,59,0,1,,,
,,,,,,,,67,60ff25387b7e06f23418ccf8,2021-07-26_23h18.07.093,glasses,2021.1.4,MacIntel,60.0024001,1,,,,,,,,,,,oval_rectangle_051.png,period,1.3182,60,0,60,0,1,,,
,,,,,,,,67,60ff25387b7e06f23418ccf8,2021-07-26_23h18.07.093,glasses,2021.1.4,MacIntel,60.0024001,1,,,,,,,,,,,oval_rectangle_011.png,x,0.811,61,0,61,0,1,,,
,,,,,,,,67,60ff25387b7e06f23418ccf8,2021-07-26_23h18.07.093,glasses,2021.1.4,MacIntel,60.0024001,1,,,,,,,,,,,oval_rectangle_101.png,period,0.4821,62,0,62,0,1,,,
,,,,,,,,67,60ff25387b7e06f23418ccf8,2021-07-26_23h18.07.093,glasses,2021.1.4,MacIntel,60.0024001,1,,,,,,,,,,,oval_rectangle_031.png,x,0.5884,63,0,63,0,1,,,
,,,,,,,,67,60ff25387b7e06f23418ccf8,2021-07-26_23h18.07.093,glasses,2021.1.4,MacIntel,60.0024001,1,,,,,,,,,,,oval_rectangle_051.png,period,0.5447,64,0,64,0,1,,,
,,,,,,,,67,60ff25387b7e06f23418ccf8,2021-07-26_23h18.07.093,glasses,2021.1.4,MacIntel,60.0024001,1,,,,,,,,,,,oval_rectangle_021.png,x,0.5441,65,0,65,0,1,,,
,,,,,,,,67,60ff25387b7e06f23418ccf8,2021-07-26_23h18.07.093,glasses,2021.1.4,MacIntel,60.0024001,1,,,,,,,,,,,oval_rectangle_071.png,period,0.7907,66,0,66,0,1,,,
,,,,,,,,67,60ff25387b7e06f23418ccf8,2021-07-26_23h18.07.093,glasses,2021.1.4,MacIntel,60.0024001,1,,,,,,,,,,,oval_rectangle_081.png,period,0.5768,67,0,67,0,1,,,
,,,,,,,,67,60ff25387b7e06f23418ccf8,2021-07-26_23h18.07.093,glasses,2021.1.4,MacIntel,60.0024001,1,,,,,,,,,,,oval_rectangle_011.png,x,0.3645,68,0,68,0,1,,,
,,,,,,,,67,60ff25387b7e06f23418ccf8,2021-07-26_23h18.07.093,glasses,2021.1.4,MacIntel,60.0024001,1,,,,,,,,,,,oval_rectangle_071.png,x,0.7836,69,0,69,0,1,,,
,,,,,,,,67,60ff25387b7e06f23418ccf8,2021-07-26_23h18.07.093,glasses,2021.1.4,MacIntel,60.0024001,1,,,,,,,,,,,oval_rectangle_071.png,period,1.4907,70,0,70,0,1,,,
,,,,,,,,67,60ff25387b7e06f23418ccf8,2021-07-26_23h18.07.093,glasses,2021.1.4,MacIntel,60.0024001,1,,,,,,,,,,,oval_rectangle_101.png,period,0.6524,71,0,71,0,1,,,
,,,,,,,,67,60ff25387b7e06f23418ccf8,2021-07-26_23h18.07.093,glasses,2021.1.4,MacIntel,60.0024001,1,,,,,,,,,,,oval_rectangle_041.png,x,0.4406,72,0,72,0,1,,,
,,,,,,,,67,60ff25387b7e06f23418ccf8,2021-07-26_23h18.07.093,glasses,2021.1.4,MacIntel,60.0024001,1,,,,,,,,,,,oval_rectangle_021.png,x,0.381,73,0,73,0,1,,,
,,,,,,,,67,60ff25387b7e06f23418ccf8,2021-07-26_23h18.07.093,glasses,2021.1.4,MacIntel,60.0024001,1,,,,,,,,,,,oval_rectangle_031.png,x,0.3905,74,0,74,0,1,,,
,,,,,,,,67,60ff25387b7e06f23418ccf8,2021-07-26_23h18.07.093,glasses,2021.1.4,MacIntel,60.0024001,1,,,,,,,,,,,oval_rectangle_011.png,x,0.4268,75,0,75,0,1,,,
,,,,,,,,67,60ff25387b7e06f23418ccf8,2021-07-26_23h18.07.093,glasses,2021.1.4,MacIntel,60.0024001,1,,,,,,,,,,,oval_rectangle_021.png,x,0.4706,76,0,76,0,1,,,
,,,,,,,,67,60ff25387b7e06f23418ccf8,2021-07-26_23h18.07.093,glasses,2021.1.4,MacIntel,60.0024001,1,,,,,,,,,,,oval_rectangle_001.png,x,0.6987,77,0,77,0,1,,,
,,,,,,,,67,60ff25387b7e06f23418ccf8,2021-07-26_23h18.07.093,glasses,2021.1.4,MacIntel,60.0024001,1,,,,,,,,,,,oval_rectangle_011.png,x,0.4606,78,0,78,0,1,,,
,,,,,,,,67,60ff25387b7e06f23418ccf8,2021-07-26_23h18.07.093,glasses,2021.1.4,MacIntel,60.0024001,1,,,,,,,,,,,oval_rectangle_011.png,x,0.4197,79,0,79,0,1,,,
,,,,,,,,67,60ff25387b7e06f23418ccf8,2021-07-26_23h18.07.093,glasses,2021.1.4,MacIntel,60.0024001,1,,,,,,,,,,,oval_rectangle_011.png,x,0.3712,80,0,80,0,1,,,
,,,,,,,,67,60ff25387b7e06f23418ccf8,2021-07-26_23h18.07.093,glasses,2021.1.4,MacIntel,60.0024001,1,,,,,,,,,,,oval_rectangle_041.png,x,0.3626,81,0,81,0,1,,,
,,,,,,,,67,60ff25387b7e06f23418ccf8,2021-07-26_23h18.07.093,glasses,2021.1.4,MacIntel,60.0024001,1,,,,,,,,,,,oval_rectangle_041.png,x,0.426,82,0,82,0,1,,,
,,,,,,,,67,60ff25387b7e06f23418ccf8,2021-07-26_23h18.07.093,glasses,2021.1.4,MacIntel,60.0024001,1,,,,,,,,,,,oval_rectangle_041.png,x,0.5135,83,0,83,0,1,,,
,,,,,,,,67,60ff25387b7e06f23418ccf8,2021-07-26_23h18.07.093,glasses,2021.1.4,MacIntel,60.0024001,1,,,,,,,,,,,oval_rectangle_071.png,x,0.3767,84,0,84,0,1,,,
,,,,,,,,67,60ff25387b7e06f23418ccf8,2021-07-26_23h18.07.093,glasses,2021.1.4,MacIntel,60.0024001,1,,,,,,,,,,,oval_rectangle_021.png,x,0.7563,85,0,85,0,1,,,
,,,,,,,,67,60ff25387b7e06f23418ccf8,2021-07-26_23h18.07.093,glasses,2021.1.4,MacIntel,60.0024001,1,,,,,,,,,,,oval_rectangle_061.png,x,0.492,86,0,86,0,1,,,
,,,,,,,,67,60ff25387b7e06f23418ccf8,2021-07-26_23h18.07.093,glasses,2021.1.4,MacIntel,60.0024001,1,,,,,,,,,,,oval_rectangle_001.png,x,0.7482,87,0,87,0,1,,,
,,,,,,,,67,60ff25387b7e06f23418ccf8,2021-07-26_23h18.07.093,glasses,2021.1.4,MacIntel,60.0024001,1,,,,,,,,,,,,,,,,,,,correct,period,20.6819
