condition,glasses1,glasses2,begin_loop.thisRepN,begin_loop.thisTrialN,begin_loop.thisN,begin_loop.thisIndex,begin_loop.ran,participant,PROLIFIC_ID*,date,expName,psychopyVersion,OS,frameRate,session,similarity_resp.keys,similarity_resp.rt,bl_loop.thisRepN,bl_loop.thisTrialN,bl_loop.thisN,bl_loop.thisIndex,bl_loop.ran,ask_glasses,glasses_left_num,glasses_right_num,classification_glasses,class_resp.keys,class_resp.rt,class_loop.thisRepN,class_loop.thisTrialN,class_loop.thisN,class_loop.thisIndex,class_loop.ran,manipulation_check,key_resp_3.keys,key_resp_3.rt
upright_glasses,geometric_round_001.png,geometric_round_101.png,0,0,0,0,1,69,60fd0f49858465796afd5da9,2021-07-26_23h23.39.701,glasses,2021.1.4,Win32,59.54507562,1,,,,,,,,,,,,,,,,,,,,,
,,,,,,,,69,60fd0f49858465796afd5da9,2021-07-26_23h23.39.701,glasses,2021.1.4,Win32,59.54507562,1,x,6.3299,0,0,0,11,1,glasses1,6,4,,,,,,,,,,,
,,,,,,,,69,60fd0f49858465796afd5da9,2021-07-26_23h23.39.701,glasses,2021.1.4,Win32,59.54507562,1,period,4.2487,0,1,1,10,1,glasses1,4,2,,,,,,,,,,,
,,,,,,,,69,60fd0f49858465796afd5da9,2021-07-26_23h23.39.701,glasses,2021.1.4,Win32,59.54507562,1,x,2.5846,0,2,2,18,1,glasses2,0,2,,,,,,,,,,,
,,,,,,,,69,60fd0f49858465796afd5da9,2021-07-26_23h23.39.701,glasses,2021.1.4,Win32,59.54507562,1,x,1.6548,0,3,3,30,1,glasses2,8,6,,,,,,,,,,,
,,,,,,,,69,60fd0f49858465796afd5da9,2021-07-26_23h23.39.701,glasses,2021.1.4,Win32,59.54507562,1,x,1.4072,0,4,4,7,1,glasses1,5,7,,,,,,,,,,,
,,,,,,,,69,60fd0f49858465796afd5da9,2021-07-26_23h23.39.701,glasses,2021.1.4,Win32,59.54507562,1,x,1.4993,0,5,5,33,1,glasses2,5,3,,,,,,,,,,,
,,,,,,,,69,60fd0f49858465796afd5da9,2021-07-26_23h23.39.701,glasses,2021.1.4,Win32,59.54507562,1,period,1.9999,0,6,6,12,1,glasses1,8,6,,,,,,,,,,,
,,,,,,,,69,60fd0f49858465796afd5da9,2021-07-26_23h23.39.701,glasses,2021.1.4,Win32,59.54507562,1,x,1.5557,0,7,7,3,1,glasses1,6,8,,,,,,,,,,,
,,,,,,,,69,60fd0f49858465796afd5da9,2021-07-26_23h23.39.701,glasses,2021.1.4,Win32,59.54507562,1,period,1.5055,0,8,8,15,1,glasses1,5,3,,,,,,,,,,,
,,,,,,,,69,60fd0f49858465796afd5da9,2021-07-26_23h23.39.701,glasses,2021.1.4,Win32,59.54507562,1,period,1.2568,0,9,9,0,1,glasses1,0,2,,,,,,,,,,,
,,,,,,,,69,60fd0f49858465796afd5da9,2021-07-26_23h23.39.701,glasses,2021.1.4,Win32,59.54507562,1,x,1.5872,0,10,10,28,1,glasses2,4,2,,,,,,,,,,,
,,,,,,,,69,60fd0f49858465796afd5da9,2021-07-26_23h23.39.701,glasses,2021.1.4,Win32,59.54507562,1,x,1.4258,0,11,11,29,1,glasses2,6,4,,,,,,,,,,,
,,,,,,,,69,60fd0f49858465796afd5da9,2021-07-26_23h23.39.701,glasses,2021.1.4,Win32,59.54507562,1,period,1.3714,0,12,12,26,1,glasses2,7,9,,,,,,,,,,,
,,,,,,,,69,60fd0f49858465796afd5da9,2021-07-26_23h23.39.701,glasses,2021.1.4,Win32,59.54507562,1,period,1.2944,0,13,13,22,1,glasses2,8,10,,,,,,,,,,,
,,,,,,,,69,60fd0f49858465796afd5da9,2021-07-26_23h23.39.701,glasses,2021.1.4,Win32,59.54507562,1,period,1.5163,0,14,14,21,1,glasses2,6,8,,,,,,,,,,,
,,,,,,,,69,60fd0f49858465796afd5da9,2021-07-26_23h23.39.701,glasses,2021.1.4,Win32,59.54507562,1,period,2.577,0,15,15,16,1,glasses1,7,5,,,,,,,,,,,
,,,,,,,,69,60fd0f49858465796afd5da9,2021-07-26_23h23.39.701,glasses,2021.1.4,Win32,59.54507562,1,x,1.7262,0,16,16,1,1,glasses1,2,4,,,,,,,,,,,
,,,,,,,,69,60fd0f49858465796afd5da9,2021-07-26_23h23.39.701,glasses,2021.1.4,Win32,59.54507562,1,period,1.6798,0,17,17,19,1,glasses2,2,4,,,,,,,,,,,
,,,,,,,,69,60fd0f49858465796afd5da9,2021-07-26_23h23.39.701,glasses,2021.1.4,Win32,59.54507562,1,x,2.2589,0,18,18,2,1,glasses1,4,6,,,,,,,,,,,
,,,,,,,,69,60fd0f49858465796afd5da9,2021-07-26_23h23.39.701,glasses,2021.1.4,Win32,59.54507562,1,x,2.7735,0,19,19,14,1,glasses1,3,1,,,,,,,,,,,
,,,,,,,,69,60fd0f49858465796afd5da9,2021-07-26_23h23.39.701,glasses,2021.1.4,Win32,59.54507562,1,period,1.2619,0,20,20,20,1,glasses2,4,6,,,,,,,,,,,
,,,,,,,,69,60fd0f49858465796afd5da9,2021-07-26_23h23.39.701,glasses,2021.1.4,Win32,59.54507562,1,x,1.9223,0,21,21,8,1,glasses1,7,9,,,,,,,,,,,
,,,,,,,,69,60fd0f49858465796afd5da9,2021-07-26_23h23.39.701,glasses,2021.1.4,Win32,59.54507562,1,period,1.5214,0,22,22,23,1,glasses2,1,3,,,,,,,,,,,
,,,,,,,,69,60fd0f49858465796afd5da9,2021-07-26_23h23.39.701,glasses,2021.1.4,Win32,59.54507562,1,period,2.0456,0,23,23,13,1,glasses1,10,8,,,,,,,,,,,
,,,,,,,,69,60fd0f49858465796afd5da9,2021-07-26_23h23.39.701,glasses,2021.1.4,Win32,59.54507562,1,x,1.5217,0,24,24,9,1,glasses1,2,0,,,,,,,,,,,
,,,,,,,,69,60fd0f49858465796afd5da9,2021-07-26_23h23.39.701,glasses,2021.1.4,Win32,59.54507562,1,x,1.4739,0,25,25,27,1,glasses2,2,0,,,,,,,,,,,
,,,,,,,,69,60fd0f49858465796afd5da9,2021-07-26_23h23.39.701,glasses,2021.1.4,Win32,59.54507562,1,x,2.4399,0,26,26,4,1,glasses1,8,10,,,,,,,,,,,
,,,,,,,,69,60fd0f49858465796afd5da9,2021-07-26_23h23.39.701,glasses,2021.1.4,Win32,59.54507562,1,x,2.0175,0,27,27,6,1,glasses1,3,5,,,,,,,,,,,
,,,,,,,,69,60fd0f49858465796afd5da9,2021-07-26_23h23.39.701,glasses,2021.1.4,Win32,59.54507562,1,period,1.2997,0,28,28,17,1,glasses1,9,7,,,,,,,,,,,
,,,,,,,,69,60fd0f49858465796afd5da9,2021-07-26_23h23.39.701,glasses,2021.1.4,Win32,59.54507562,1,period,5.7216,0,29,29,24,1,glasses2,3,5,,,,,,,,,,,
,,,,,,,,69,60fd0f49858465796afd5da9,2021-07-26_23h23.39.701,glasses,2021.1.4,Win32,59.54507562,1,x,1.194,0,30,30,32,1,glasses2,3,1,,,,,,,,,,,
,,,,,,,,69,60fd0f49858465796afd5da9,2021-07-26_23h23.39.701,glasses,2021.1.4,Win32,59.54507562,1,x,1.1997,0,31,31,35,1,glasses2,9,7,,,,,,,,,,,
,,,,,,,,69,60fd0f49858465796afd5da9,2021-07-26_23h23.39.701,glasses,2021.1.4,Win32,59.54507562,1,x,1.242,0,32,32,31,1,glasses2,10,8,,,,,,,,,,,
,,,,,,,,69,60fd0f49858465796afd5da9,2021-07-26_23h23.39.701,glasses,2021.1.4,Win32,59.54507562,1,x,2.3044,0,33,33,5,1,glasses1,1,3,,,,,,,,,,,
,,,,,,,,69,60fd0f49858465796afd5da9,2021-07-26_23h23.39.701,glasses,2021.1.4,Win32,59.54507562,1,period,4.1614,0,34,34,34,1,glasses2,7,5,,,,,,,,,,,
,,,,,,,,69,60fd0f49858465796afd5da9,2021-07-26_23h23.39.701,glasses,2021.1.4,Win32,59.54507562,1,period,0.8394,0,35,35,25,1,glasses2,5,7,,,,,,,,,,,
,,,,,,,,69,60fd0f49858465796afd5da9,2021-07-26_23h23.39.701,glasses,2021.1.4,Win32,59.54507562,1,,,,,,,,,,,geometric_round_041.png,x,6.4267,0,0,0,0,1,,,
,,,,,,,,69,60fd0f49858465796afd5da9,2021-07-26_23h23.39.701,glasses,2021.1.4,Win32,59.54507562,1,,,,,,,,,,,geometric_round_051.png,period,3.0217,1,0,1,0,1,,,
,,,,,,,,69,60fd0f49858465796afd5da9,2021-07-26_23h23.39.701,glasses,2021.1.4,Win32,59.54507562,1,,,,,,,,,,,geometric_round_031.png,x,1.2389,2,0,2,0,1,,,
,,,,,,,,69,60fd0f49858465796afd5da9,2021-07-26_23h23.39.701,glasses,2021.1.4,Win32,59.54507562,1,,,,,,,,,,,geometric_round_051.png,period,1.1175,3,0,3,0,1,,,
,,,,,,,,69,60fd0f49858465796afd5da9,2021-07-26_23h23.39.701,glasses,2021.1.4,Win32,59.54507562,1,,,,,,,,,,,geometric_round_071.png,period,1.1674,4,0,4,0,1,,,
,,,,,,,,69,60fd0f49858465796afd5da9,2021-07-26_23h23.39.701,glasses,2021.1.4,Win32,59.54507562,1,,,,,,,,,,,geometric_round_071.png,period,1.2189,5,0,5,0,1,,,
,,,,,,,,69,60fd0f49858465796afd5da9,2021-07-26_23h23.39.701,glasses,2021.1.4,Win32,59.54507562,1,,,,,,,,,,,geometric_round_091.png,period,1.23,6,0,6,0,1,,,
,,,,,,,,69,60fd0f49858465796afd5da9,2021-07-26_23h23.39.701,glasses,2021.1.4,Win32,59.54507562,1,,,,,,,,,,,geometric_round_061.png,period,1.2048,7,0,7,0,1,,,
,,,,,,,,69,60fd0f49858465796afd5da9,2021-07-26_23h23.39.701,glasses,2021.1.4,Win32,59.54507562,1,,,,,,,,,,,geometric_round_031.png,x,1.2185,8,0,8,0,1,,,
,,,,,,,,69,60fd0f49858465796afd5da9,2021-07-26_23h23.39.701,glasses,2021.1.4,Win32,59.54507562,1,,,,,,,,,,,geometric_round_071.png,period,1.0507,9,0,9,0,1,,,
,,,,,,,,69,60fd0f49858465796afd5da9,2021-07-26_23h23.39.701,glasses,2021.1.4,Win32,59.54507562,1,,,,,,,,,,,geometric_round_021.png,x,1.0918,10,0,10,0,1,,,
,,,,,,,,69,60fd0f49858465796afd5da9,2021-07-26_23h23.39.701,glasses,2021.1.4,Win32,59.54507562,1,,,,,,,,,,,geometric_round_031.png,x,1.0427,11,0,11,0,1,,,
,,,,,,,,69,60fd0f49858465796afd5da9,2021-07-26_23h23.39.701,glasses,2021.1.4,Win32,59.54507562,1,,,,,,,,,,,geometric_round_091.png,period,1.0191,12,0,12,0,1,,,
,,,,,,,,69,60fd0f49858465796afd5da9,2021-07-26_23h23.39.701,glasses,2021.1.4,Win32,59.54507562,1,,,,,,,,,,,geometric_round_061.png,period,1.1557,13,0,13,0,1,,,
,,,,,,,,69,60fd0f49858465796afd5da9,2021-07-26_23h23.39.701,glasses,2021.1.4,Win32,59.54507562,1,,,,,,,,,,,geometric_round_001.png,x,1.1053,14,0,14,0,1,,,
,,,,,,,,69,60fd0f49858465796afd5da9,2021-07-26_23h23.39.701,glasses,2021.1.4,Win32,59.54507562,1,,,,,,,,,,,geometric_round_001.png,x,1.1032,15,0,15,0,1,,,
,,,,,,,,69,60fd0f49858465796afd5da9,2021-07-26_23h23.39.701,glasses,2021.1.4,Win32,59.54507562,1,,,,,,,,,,,geometric_round_101.png,period,1.0442,16,0,16,0,1,,,
,,,,,,,,69,60fd0f49858465796afd5da9,2021-07-26_23h23.39.701,glasses,2021.1.4,Win32,59.54507562,1,,,,,,,,,,,geometric_round_001.png,x,1.1277,17,0,17,0,1,,,
,,,,,,,,69,60fd0f49858465796afd5da9,2021-07-26_23h23.39.701,glasses,2021.1.4,Win32,59.54507562,1,,,,,,,,,,,geometric_round_021.png,x,1.0366,18,0,18,0,1,,,
,,,,,,,,69,60fd0f49858465796afd5da9,2021-07-26_23h23.39.701,glasses,2021.1.4,Win32,59.54507562,1,,,,,,,,,,,geometric_round_071.png,period,1.0756,19,0,19,0,1,,,
,,,,,,,,69,60fd0f49858465796afd5da9,2021-07-26_23h23.39.701,glasses,2021.1.4,Win32,59.54507562,1,,,,,,,,,,,geometric_round_071.png,period,1.0824,20,0,20,0,1,,,
,,,,,,,,69,60fd0f49858465796afd5da9,2021-07-26_23h23.39.701,glasses,2021.1.4,Win32,59.54507562,1,,,,,,,,,,,geometric_round_091.png,period,1.0417,21,0,21,0,1,,,
,,,,,,,,69,60fd0f49858465796afd5da9,2021-07-26_23h23.39.701,glasses,2021.1.4,Win32,59.54507562,1,,,,,,,,,,,geometric_round_001.png,x,0.9798,22,0,22,0,1,,,
,,,,,,,,69,60fd0f49858465796afd5da9,2021-07-26_23h23.39.701,glasses,2021.1.4,Win32,59.54507562,1,,,,,,,,,,,geometric_round_081.png,period,0.9895,23,0,23,0,1,,,
,,,,,,,,69,60fd0f49858465796afd5da9,2021-07-26_23h23.39.701,glasses,2021.1.4,Win32,59.54507562,1,,,,,,,,,,,geometric_round_041.png,x,2.4341,24,0,24,0,1,,,
,,,,,,,,69,60fd0f49858465796afd5da9,2021-07-26_23h23.39.701,glasses,2021.1.4,Win32,59.54507562,1,,,,,,,,,,,geometric_round_061.png,period,2.7862,25,0,25,0,1,,,
,,,,,,,,69,60fd0f49858465796afd5da9,2021-07-26_23h23.39.701,glasses,2021.1.4,Win32,59.54507562,1,,,,,,,,,,,geometric_round_051.png,x,1.2295,26,0,26,0,1,,,
,,,,,,,,69,60fd0f49858465796afd5da9,2021-07-26_23h23.39.701,glasses,2021.1.4,Win32,59.54507562,1,,,,,,,,,,,geometric_round_101.png,period,1.0448,27,0,27,0,1,,,
,,,,,,,,69,60fd0f49858465796afd5da9,2021-07-26_23h23.39.701,glasses,2021.1.4,Win32,59.54507562,1,,,,,,,,,,,geometric_round_021.png,x,3.9671,28,0,28,0,1,,,
,,,,,,,,69,60fd0f49858465796afd5da9,2021-07-26_23h23.39.701,glasses,2021.1.4,Win32,59.54507562,1,,,,,,,,,,,geometric_round_011.png,x,26.3326,29,0,29,0,1,,,
,,,,,,,,69,60fd0f49858465796afd5da9,2021-07-26_23h23.39.701,glasses,2021.1.4,Win32,59.54507562,1,,,,,,,,,,,geometric_round_081.png,period,1.2854,30,0,30,0,1,,,
,,,,,,,,69,60fd0f49858465796afd5da9,2021-07-26_23h23.39.701,glasses,2021.1.4,Win32,59.54507562,1,,,,,,,,,,,geometric_round_011.png,x,1.4521,31,0,31,0,1,,,
,,,,,,,,69,60fd0f49858465796afd5da9,2021-07-26_23h23.39.701,glasses,2021.1.4,Win32,59.54507562,1,,,,,,,,,,,geometric_round_051.png,x,2.16,32,0,32,0,1,,,
,,,,,,,,69,60fd0f49858465796afd5da9,2021-07-26_23h23.39.701,glasses,2021.1.4,Win32,59.54507562,1,,,,,,,,,,,geometric_round_041.png,x,1.1203,33,0,33,0,1,,,
,,,,,,,,69,60fd0f49858465796afd5da9,2021-07-26_23h23.39.701,glasses,2021.1.4,Win32,59.54507562,1,,,,,,,,,,,geometric_round_061.png,period,1.223,34,0,34,0,1,,,
,,,,,,,,69,60fd0f49858465796afd5da9,2021-07-26_23h23.39.701,glasses,2021.1.4,Win32,59.54507562,1,,,,,,,,,,,geometric_round_081.png,period,1.0786,35,0,35,0,1,,,
,,,,,,,,69,60fd0f49858465796afd5da9,2021-07-26_23h23.39.701,glasses,2021.1.4,Win32,59.54507562,1,,,,,,,,,,,geometric_round_001.png,x,1.1912,36,0,36,0,1,,,
,,,,,,,,69,60fd0f49858465796afd5da9,2021-07-26_23h23.39.701,glasses,2021.1.4,Win32,59.54507562,1,,,,,,,,,,,geometric_round_061.png,period,1.2016,37,0,37,0,1,,,
,,,,,,,,69,60fd0f49858465796afd5da9,2021-07-26_23h23.39.701,glasses,2021.1.4,Win32,59.54507562,1,,,,,,,,,,,geometric_round_101.png,period,1.1338,38,0,38,0,1,,,
,,,,,,,,69,60fd0f49858465796afd5da9,2021-07-26_23h23.39.701,glasses,2021.1.4,Win32,59.54507562,1,,,,,,,,,,,geometric_round_041.png,period,2.4874,39,0,39,0,1,,,
,,,,,,,,69,60fd0f49858465796afd5da9,2021-07-26_23h23.39.701,glasses,2021.1.4,Win32,59.54507562,1,,,,,,,,,,,geometric_round_061.png,period,1.4092,40,0,40,0,1,,,
,,,,,,,,69,60fd0f49858465796afd5da9,2021-07-26_23h23.39.701,glasses,2021.1.4,Win32,59.54507562,1,,,,,,,,,,,geometric_round_011.png,x,1.9359,41,0,41,0,1,,,
,,,,,,,,69,60fd0f49858465796afd5da9,2021-07-26_23h23.39.701,glasses,2021.1.4,Win32,59.54507562,1,,,,,,,,,,,geometric_round_051.png,period,2.7709,42,0,42,0,1,,,
,,,,,,,,69,60fd0f49858465796afd5da9,2021-07-26_23h23.39.701,glasses,2021.1.4,Win32,59.54507562,1,,,,,,,,,,,geometric_round_071.png,period,8.342,43,0,43,0,1,,,
,,,,,,,,69,60fd0f49858465796afd5da9,2021-07-26_23h23.39.701,glasses,2021.1.4,Win32,59.54507562,1,,,,,,,,,,,geometric_round_001.png,x,2.1488,44,0,44,0,1,,,
,,,,,,,,69,60fd0f49858465796afd5da9,2021-07-26_23h23.39.701,glasses,2021.1.4,Win32,59.54507562,1,,,,,,,,,,,geometric_round_011.png,x,1.1598,45,0,45,0,1,,,
,,,,,,,,69,60fd0f49858465796afd5da9,2021-07-26_23h23.39.701,glasses,2021.1.4,Win32,59.54507562,1,,,,,,,,,,,geometric_round_091.png,period,1.5556,46,0,46,0,1,,,
,,,,,,,,69,60fd0f49858465796afd5da9,2021-07-26_23h23.39.701,glasses,2021.1.4,Win32,59.54507562,1,,,,,,,,,,,geometric_round_001.png,x,1.1922,47,0,47,0,1,,,
,,,,,,,,69,60fd0f49858465796afd5da9,2021-07-26_23h23.39.701,glasses,2021.1.4,Win32,59.54507562,1,,,,,,,,,,,geometric_round_041.png,x,1.2005,48,0,48,0,1,,,
,,,,,,,,69,60fd0f49858465796afd5da9,2021-07-26_23h23.39.701,glasses,2021.1.4,Win32,59.54507562,1,,,,,,,,,,,geometric_round_081.png,period,1.0813,49,0,49,0,1,,,
,,,,,,,,69,60fd0f49858465796afd5da9,2021-07-26_23h23.39.701,glasses,2021.1.4,Win32,59.54507562,1,,,,,,,,,,,geometric_round_091.png,period,0.5242,50,0,50,0,1,,,
,,,,,,,,69,60fd0f49858465796afd5da9,2021-07-26_23h23.39.701,glasses,2021.1.4,Win32,59.54507562,1,,,,,,,,,,,geometric_round_031.png,x,2.0337,51,0,51,0,1,,,
,,,,,,,,69,60fd0f49858465796afd5da9,2021-07-26_23h23.39.701,glasses,2021.1.4,Win32,59.54507562,1,,,,,,,,,,,geometric_round_031.png,x,1.1194,52,0,52,0,1,,,
,,,,,,,,69,60fd0f49858465796afd5da9,2021-07-26_23h23.39.701,glasses,2021.1.4,Win32,59.54507562,1,,,,,,,,,,,geometric_round_031.png,x,1.0982,53,0,53,0,1,,,
,,,,,,,,69,60fd0f49858465796afd5da9,2021-07-26_23h23.39.701,glasses,2021.1.4,Win32,59.54507562,1,,,,,,,,,,,geometric_round_061.png,period,1.8485,54,0,54,0,1,,,
,,,,,,,,69,60fd0f49858465796afd5da9,2021-07-26_23h23.39.701,glasses,2021.1.4,Win32,59.54507562,1,,,,,,,,,,,geometric_round_081.png,period,1.1731,55,0,55,0,1,,,
,,,,,,,,69,60fd0f49858465796afd5da9,2021-07-26_23h23.39.701,glasses,2021.1.4,Win32,59.54507562,1,,,,,,,,,,,geometric_round_011.png,x,1.0568,56,0,56,0,1,,,
,,,,,,,,69,60fd0f49858465796afd5da9,2021-07-26_23h23.39.701,glasses,2021.1.4,Win32,59.54507562,1,,,,,,,,,,,geometric_round_091.png,period,1.016,57,0,57,0,1,,,
,,,,,,,,69,60fd0f49858465796afd5da9,2021-07-26_23h23.39.701,glasses,2021.1.4,Win32,59.54507562,1,,,,,,,,,,,geometric_round_081.png,period,0.9055,58,0,58,0,1,,,
,,,,,,,,69,60fd0f49858465796afd5da9,2021-07-26_23h23.39.701,glasses,2021.1.4,Win32,59.54507562,1,,,,,,,,,,,geometric_round_101.png,period,0.9929,59,0,59,0,1,,,
,,,,,,,,69,60fd0f49858465796afd5da9,2021-07-26_23h23.39.701,glasses,2021.1.4,Win32,59.54507562,1,,,,,,,,,,,geometric_round_091.png,period,1.0382,60,0,60,0,1,,,
,,,,,,,,69,60fd0f49858465796afd5da9,2021-07-26_23h23.39.701,glasses,2021.1.4,Win32,59.54507562,1,,,,,,,,,,,geometric_round_011.png,x,1.0107,61,0,61,0,1,,,
,,,,,,,,69,60fd0f49858465796afd5da9,2021-07-26_23h23.39.701,glasses,2021.1.4,Win32,59.54507562,1,,,,,,,,,,,geometric_round_021.png,x,1.0267,62,0,62,0,1,,,
,,,,,,,,69,60fd0f49858465796afd5da9,2021-07-26_23h23.39.701,glasses,2021.1.4,Win32,59.54507562,1,,,,,,,,,,,geometric_round_041.png,x,1.3901,63,0,63,0,1,,,
,,,,,,,,69,60fd0f49858465796afd5da9,2021-07-26_23h23.39.701,glasses,2021.1.4,Win32,59.54507562,1,,,,,,,,,,,geometric_round_071.png,period,1.0184,64,0,64,0,1,,,
,,,,,,,,69,60fd0f49858465796afd5da9,2021-07-26_23h23.39.701,glasses,2021.1.4,Win32,59.54507562,1,,,,,,,,,,,geometric_round_021.png,x,1.0551,65,0,65,0,1,,,
,,,,,,,,69,60fd0f49858465796afd5da9,2021-07-26_23h23.39.701,glasses,2021.1.4,Win32,59.54507562,1,,,,,,,,,,,geometric_round_081.png,period,0.9955,66,0,66,0,1,,,
,,,,,,,,69,60fd0f49858465796afd5da9,2021-07-26_23h23.39.701,glasses,2021.1.4,Win32,59.54507562,1,,,,,,,,,,,geometric_round_061.png,period,1.0041,67,0,67,0,1,,,
,,,,,,,,69,60fd0f49858465796afd5da9,2021-07-26_23h23.39.701,glasses,2021.1.4,Win32,59.54507562,1,,,,,,,,,,,geometric_round_101.png,period,1.065,68,0,68,0,1,,,
,,,,,,,,69,60fd0f49858465796afd5da9,2021-07-26_23h23.39.701,glasses,2021.1.4,Win32,59.54507562,1,,,,,,,,,,,geometric_round_051.png,period,1.0859,69,0,69,0,1,,,
,,,,,,,,69,60fd0f49858465796afd5da9,2021-07-26_23h23.39.701,glasses,2021.1.4,Win32,59.54507562,1,,,,,,,,,,,geometric_round_101.png,period,1.0469,70,0,70,0,1,,,
,,,,,,,,69,60fd0f49858465796afd5da9,2021-07-26_23h23.39.701,glasses,2021.1.4,Win32,59.54507562,1,,,,,,,,,,,geometric_round_081.png,period,1.0463,71,0,71,0,1,,,
,,,,,,,,69,60fd0f49858465796afd5da9,2021-07-26_23h23.39.701,glasses,2021.1.4,Win32,59.54507562,1,,,,,,,,,,,geometric_round_071.png,period,1.0898,72,0,72,0,1,,,
,,,,,,,,69,60fd0f49858465796afd5da9,2021-07-26_23h23.39.701,glasses,2021.1.4,Win32,59.54507562,1,,,,,,,,,,,geometric_round_101.png,period,1.2471,73,0,73,0,1,,,
,,,,,,,,69,60fd0f49858465796afd5da9,2021-07-26_23h23.39.701,glasses,2021.1.4,Win32,59.54507562,1,,,,,,,,,,,geometric_round_051.png,period,2.2331,74,0,74,0,1,,,
,,,,,,,,69,60fd0f49858465796afd5da9,2021-07-26_23h23.39.701,glasses,2021.1.4,Win32,59.54507562,1,,,,,,,,,,,geometric_round_051.png,x,1.2813,75,0,75,0,1,,,
,,,,,,,,69,60fd0f49858465796afd5da9,2021-07-26_23h23.39.701,glasses,2021.1.4,Win32,59.54507562,1,,,,,,,,,,,geometric_round_021.png,x,1.086,76,0,76,0,1,,,
,,,,,,,,69,60fd0f49858465796afd5da9,2021-07-26_23h23.39.701,glasses,2021.1.4,Win32,59.54507562,1,,,,,,,,,,,geometric_round_001.png,x,1.1358,77,0,77,0,1,,,
,,,,,,,,69,60fd0f49858465796afd5da9,2021-07-26_23h23.39.701,glasses,2021.1.4,Win32,59.54507562,1,,,,,,,,,,,geometric_round_091.png,period,1.0371,78,0,78,0,1,,,
,,,,,,,,69,60fd0f49858465796afd5da9,2021-07-26_23h23.39.701,glasses,2021.1.4,Win32,59.54507562,1,,,,,,,,,,,geometric_round_101.png,period,1.0059,79,0,79,0,1,,,
,,,,,,,,69,60fd0f49858465796afd5da9,2021-07-26_23h23.39.701,glasses,2021.1.4,Win32,59.54507562,1,,,,,,,,,,,geometric_round_011.png,x,1.0254,80,0,80,0,1,,,
,,,,,,,,69,60fd0f49858465796afd5da9,2021-07-26_23h23.39.701,glasses,2021.1.4,Win32,59.54507562,1,,,,,,,,,,,geometric_round_031.png,x,1.0244,81,0,81,0,1,,,
,,,,,,,,69,60fd0f49858465796afd5da9,2021-07-26_23h23.39.701,glasses,2021.1.4,Win32,59.54507562,1,,,,,,,,,,,geometric_round_021.png,x,1.4469,82,0,82,0,1,,,
,,,,,,,,69,60fd0f49858465796afd5da9,2021-07-26_23h23.39.701,glasses,2021.1.4,Win32,59.54507562,1,,,,,,,,,,,geometric_round_041.png,x,1.0524,83,0,83,0,1,,,
,,,,,,,,69,60fd0f49858465796afd5da9,2021-07-26_23h23.39.701,glasses,2021.1.4,Win32,59.54507562,1,,,,,,,,,,,geometric_round_041.png,x,0.7164,84,0,84,0,1,,,
,,,,,,,,69,60fd0f49858465796afd5da9,2021-07-26_23h23.39.701,glasses,2021.1.4,Win32,59.54507562,1,,,,,,,,,,,geometric_round_031.png,x,1.1167,85,0,85,0,1,,,
,,,,,,,,69,60fd0f49858465796afd5da9,2021-07-26_23h23.39.701,glasses,2021.1.4,Win32,59.54507562,1,,,,,,,,,,,geometric_round_021.png,x,1.0661,86,0,86,0,1,,,
,,,,,,,,69,60fd0f49858465796afd5da9,2021-07-26_23h23.39.701,glasses,2021.1.4,Win32,59.54507562,1,,,,,,,,,,,geometric_round_011.png,x,1.0648,87,0,87,0,1,,,
,,,,,,,,69,60fd0f49858465796afd5da9,2021-07-26_23h23.39.701,glasses,2021.1.4,Win32,59.54507562,1,,,,,,,,,,,,,,,,,,,correct,x,11.23
